#Acq. time (s)=	5
#Accumulations=	5
#Range (cm-¹)=	1000...3000
#Windows=	6
#Autofocus=	Off
#AutoExposure=	Off
#Spike filter=	Multiple accum.
#Delay time (s)=	0
#Binning=	1
#Readout mode=	Signal
#DeNoise=	Standard
#ICS correction=	Off
#Dark correction=	Off
#Inst. Process=	Off
#Detector temperature (°C)=	-65
#Instrument=	ARAMIS
#Detector=	Andor CCD
#Objective=	x100
#Grating=	1800
#Filter=	100%
#Laser (nm)=	633
#Slit=	100
#Location=	Micro
#Range=	Visible
#StageXY=	Marzhauser
#X (µm)=	6146.2
#Y (µm)=	-799.7
#Full time(mm:ss)=	2:42
#Project=	
#Sample=	
#Site=	
#Title=	Gr_YC_1
#Remark=	
#Date=	02.07.2025 13:42
#Acquired=	02.07.2025 13:42:36
1001.64	109.842
1002.13	109.64
1002.62	107.957
1003.11	105.073
1003.6	102.691
1004.09	100.704
1004.58	98.5284
1005.08	96.4134
1005.57	94.3975
1006.05	92.7052
1006.55	91.3652
1007.04	89.9921
1007.53	88.9272
1008.02	88.1824
1008.51	87.0677
1009	85.4701
1009.49	83.4854
1009.98	80.9669
1010.47	78.0587
1010.96	74.875
1011.45	72.2313
1011.93	69.4565
1012.42	68.2049
1012.91	67.2556
1013.4	66.1619
1013.89	65.2963
1014.38	64.2771
1014.87	63.177
1015.36	62.1533
1015.85	61.5312
1016.34	60.5152
1016.83	59.6186
1017.32	58.8357
1017.81	58.037
1018.3	57.3436
1018.78	56.477
1019.27	55.6102
1019.76	54.4929
1020.25	53.6572
1020.74	52.4256
1021.23	50.9574
1021.71	49.8494
1022.2	48.997
1022.69	48.4269
1023.18	47.4178
1023.67	46.7144
1024.16	45.7749
1024.65	44.5552
1025.13	43.4089
1025.62	42.4287
1026.11	41.5596
1026.6	40.7175
1027.09	40.1065
1027.57	39.4556
1028.06	38.6363
1028.55	37.7634
1029.04	36.7906
1029.52	35.9063
1030.01	34.7471
1030.5	33.4846
1030.99	32.1739
1031.47	30.7692
1031.96	29.2858
1032.45	27.7984
1032.93	26.478
1033.42	25.3163
1033.91	24.0304
1034.39	22.8862
1034.88	21.9755
1035.37	21.2343
1035.86	20.6456
1036.34	19.7877
1036.83	18.7036
1037.32	17.7975
1037.8	17.0158
1038.29	16.1791
1038.78	15.5227
1039.26	14.8496
1039.75	13.9364
1040.23	12.7802
1040.72	11.5393
1041.21	10.368
1041.69	9.33254
1042.18	8.18035
1042.66	7.42379
1043.15	6.48232
1043.63	5.63425
1044.12	4.56818
1044.61	3.63006
1045.09	3.05409
1045.58	2.9319
1046.06	2.89032
1046.55	3.0174
1047.03	3.19063
1047.52	3.42212
1048	3.39494
1048.49	2.88349
1048.97	2.5115
1049.46	2.61302
1049.95	2.8381
1050.43	3.26598
1050.92	3.23016
1051.4	2.13529
1051.88	1.92198
1052.37	1.83813
1052.85	1.81851
1053.34	1.83351
1053.82	2.03422
1054.31	2.21904
1054.79	2.37711
1055.28	2.55231
1055.76	2.48129
1056.25	2.49319
1056.73	2.35013
1057.21	2.32044
1057.7	2.3466
1058.18	2.42644
1058.67	2.19354
1059.15	1.60513
1059.63	0.744395
1060.12	-0.157816
1060.6	-0.935627
1061.08	-1.62306
1061.57	-1.99
1062.05	-2.02209
1062.54	-1.97028
1063.02	-1.76665
1063.5	-1.54363
1063.99	-1.30042
1064.47	-1.02772
1064.95	-0.62951
1065.43	-0.36049
1065.92	-0.163091
1066.4	0.029408
1066.88	-0.0518121
1067.37	-0.153622
1067.85	-0.192608
1068.33	-0.334361
1068.82	-0.478711
1069.3	-0.547837
1069.78	-0.4489
1070.26	-0.42221
1070.75	-0.375641
1071.23	-0.704243
1071.71	-0.917445
1072.19	-1.15395
1072.68	-1.13073
1073.16	-1.01008
1073.64	0.143218
1074.12	0.524772
1074.6	0.798819
1075.08	0.299705
1075.57	-0.363858
1076.05	-0.892859
1076.53	-1.2647
1077.01	-0.976842
1077.49	-0.431709
1077.98	-0.253785
1078.46	-0.129367
1078.94	-0.478364
1079.42	-0.684658
1079.9	-0.802964
1080.38	-0.87323
1080.86	-0.835007
1081.35	-0.546686
1081.83	-0.163334
1082.31	-0.227425
1082.79	-0.368111
1083.27	-0.456771
1083.75	-0.464225
1084.23	-0.38182
1084.71	-0.335894
1085.19	-0.295744
1085.67	-0.220432
1086.15	-0.12958
1086.63	-0.0734023
1087.12	-0.107239
1087.59	-0.194734
1088.08	-0.517976
1088.56	-0.605581
1089.04	-0.370246
1089.52	0.117504
1090	0.405411
1090.48	0.625334
1090.96	0.776945
1091.44	0.805347
1091.92	0.617363
1092.4	0.67815
1092.88	0.945278
1093.36	1.34367
1093.84	1.61669
1094.31	1.73864
1094.8	1.50264
1095.27	0.987161
1095.75	0.283298
1096.23	-0.255221
1096.71	-0.689535
1097.19	-1.12547
1097.67	-1.37023
1098.15	-1.52232
1098.63	-1.51297
1099.11	-1.45036
1099.59	-1.50719
1100.07	-1.46089
1100.54	-1.43417
1101.02	-1.34287
1101.5	-1.33802
1101.98	-0.794122
1102.46	-1.0525
1102.94	-1.64158
1103.42	-2.48444
1103.9	-3.24689
1104.37	-3.41911
1104.85	-3.02353
1105.33	-2.32165
1105.81	-0.835298
1106.29	-0.190523
1106.76	0.266379
1107.24	0.222022
1107.72	0.167054
1108.2	-0.184856
1108.68	-0.481369
1109.15	-0.674839
1109.63	-0.794207
1110.11	-0.861113
1110.59	-1.12839
1111.06	-1.42938
1111.54	-1.66373
1112.02	-1.61254
1112.5	-1.42433
1112.97	-1.44666
1113.45	-1.4025
1113.93	-1.4011
1114.41	-1.38352
1114.88	-1.44922
1115.36	-1.58494
1115.84	-1.77314
1116.31	-2.0286
1116.79	-2.15098
1117.27	-2.23302
1117.74	-2.24949
1118.22	-2.10448
1118.7	-1.95441
1119.17	-1.77709
1119.65	-2.08315
1120.13	-2.48154
1120.6	-2.90204
1121.08	-3.08751
1121.56	-3.19446
1122.03	-3.19604
1122.51	-3.19269
1122.98	-3.08757
1123.46	-2.95155
1123.94	-2.79686
1124.41	-2.72978
1124.89	-2.73098
1125.36	-2.64197
1125.84	-2.56988
1126.31	-2.46393
1126.79	-2.30493
1127.27	-2.21273
1127.74	-2.17285
1128.22	-2.11615
1128.69	-1.91975
1129.17	-1.83442
1129.64	-1.76067
1130.12	-1.70461
1130.59	-1.66314
1131.07	-1.48807
1131.54	-1.38741
1132.02	-1.29195
1132.49	-1.32697
1132.97	-1.43894
1133.44	-1.3968
1133.92	-1.00263
1134.39	-1.07749
1134.87	-1.42693
1135.34	-1.78658
1135.82	-2.14483
1136.29	-2.56726
1136.77	-2.92465
1137.24	-3.32262
1137.71	-3.68568
1138.19	-3.92771
1138.66	-4.31371
1139.14	-4.63633
1139.61	-4.84989
1140.08	-4.7631
1140.56	-4.43043
1141.03	-3.89076
1141.51	-3.47702
1141.98	-3.02466
1142.45	-2.66458
1142.93	-2.41145
1143.4	-2.19863
1143.87	-1.98979
1144.35	-1.82993
1144.82	-1.75303
1145.29	-1.68439
1145.77	-1.85454
1146.24	-1.86555
1146.71	-1.95261
1147.19	-2.06075
1147.66	-2.0013
1148.13	-2.28098
1148.61	-2.45825
1149.08	-2.70154
1149.55	-2.84442
1150.02	-3.12431
1150.5	-3.26331
1150.97	-3.31928
1151.44	-3.19537
1151.91	-3.11118
1152.39	-3.22554
1152.86	-5.80861
1153.33	-3.51507
1153.8	-2.95767
1154.28	-2.50407
1154.75	-2.60884
1155.22	-2.57312
1155.69	-2.45275
1156.16	-2.36104
1156.64	-2.62381
1157.11	-2.69757
1157.58	-2.91781
1158.05	-2.90505
1158.52	-2.94208
1159	-2.91557
1159.47	-2.87295
1159.94	-2.90641
1160.41	-2.98178
1160.88	-3.12162
1161.35	-3.20896
1161.82	-3.2112
1162.29	-3.27387
1162.77	-3.31733
1163.24	-3.3787
1163.71	-3.55637
1164.18	-3.89526
1164.65	-4.02294
1165.12	-4.222
1165.59	-4.21595
1166.06	-4.30069
1166.53	-4.29387
1167	-4.3104
1167.47	-4.515
1167.94	-4.66604
1168.42	-4.80333
1168.89	-4.99881
1169.36	-5.18543
1169.83	-5.37418
1170.3	-5.37978
1170.77	-5.36958
1171.24	-5.44335
1171.71	-5.58482
1172.18	-5.76702
1172.65	-5.73589
1173.12	-5.5602
1173.59	-5.26476
1174.06	-4.95541
1174.53	-4.59766
1175	-4.2767
1175.47	-3.85949
1175.93	-2.70954
1176.4	-2.48647
1176.87	-2.35322
1177.34	-2.21491
1177.81	-2.17188
1178.28	-2.18212
1178.75	-2.37493
1179.22	-2.53746
1179.69	-2.77741
1180.16	-3.1877
1180.63	-3.66567
1181.1	-4.27936
1181.57	-4.83489
1182.03	-5.0562
1182.5	-5.06393
1182.97	-5.04611
1183.44	-5.95359
1183.91	-5.71598
1184.38	-5.38051
1184.85	-5.1641
1185.31	-5.07255
1185.78	-4.8501
1186.25	-4.817
1186.72	-4.56474
1187.19	-4.30352
1187.65	-3.98584
1188.12	-3.79405
1188.59	-4.62758
1189.06	-4.54334
1189.53	-4.51289
1189.99	-4.50269
1190.46	-4.64369
1190.93	-4.71268
1191.4	-4.81701
1191.86	-5.00788
1192.33	-5.20099
1192.8	-5.33584
1193.27	-5.37314
1193.74	-5.23881
1194.2	-4.97393
1194.67	-4.68907
1195.14	-4.40471
1195.6	-4.23333
1196.07	-4.1603
1196.54	-4.08055
1197	-4.21416
1197.47	-4.50666
1197.94	-4.69243
1198.4	-4.727
1198.87	-4.87898
1199.34	-5.00799
1199.81	-5.20572
1200.27	-5.24548
1200.74	-5.29907
1201.2	-5.08973
1201.67	-5.12417
1202.14	-5.17765
1202.6	-5.32914
1203.07	-5.51466
1203.54	-5.64053
1204	-5.65013
1204.47	-5.59107
1204.93	-5.34751
1205.4	-5.28674
1205.86	-5.28115
1206.33	-5.28212
1206.8	-5.38156
1207.26	-5.30989
1207.73	-5.17563
1208.19	-5.17338
1208.66	-5.02221
1209.12	-4.94858
1209.59	-5.03422
1210.06	-5.15415
1210.52	-5.25819
1210.99	-5.51436
1211.45	-5.67168
1211.92	-5.76117
1212.38	-5.64515
1212.84	-5.4259
1213.31	-5.1209
1213.78	-4.81114
1214.24	-4.49635
1214.7	-4.37328
1215.17	-4.15165
1215.63	-4.14589
1216.1	-4.13928
1216.56	-4.15937
1217.03	-4.17015
1217.49	-4.11652
1217.96	-4.06197
1218.42	-4.17813
1218.88	-4.31652
1219.35	-4.57412
1219.81	-4.67979
1220.28	-4.79829
1220.74	-4.89584
1221.21	-4.96884
1221.67	-5.15614
1222.13	-5.32781
1222.6	-5.31837
1223.06	-5.46035
1223.52	-5.61128
1223.99	-5.68644
1224.45	-5.90736
1224.91	-5.99682
1225.38	-6.10527
1225.84	-6.09598
1226.3	-6.11431
1226.77	-6.12018
1227.23	-6.14471
1227.69	-6.16436
1228.16	-6.18543
1228.62	-6.2299
1229.08	-6.25134
1229.55	-6.20897
1230.01	-6.38538
1230.47	-6.53681
1230.93	-6.48023
1231.4	-6.31014
1231.86	-5.89298
1232.32	-5.2722
1232.78	-4.7974
1233.25	-4.58703
1233.71	-4.69449
1234.17	-4.82036
1234.63	-5.03223
1235.1	-4.93676
1235.56	-4.63625
1236.02	-4.43996
1236.48	-4.02403
1236.94	-4.06485
1237.41	-4.11285
1237.87	-4.34814
1238.33	-4.62701
1238.79	-4.85109
1239.25	-5.02904
1239.71	-5.15307
1240.18	-5.20883
1240.64	-5.35033
1241.1	-5.47251
1241.56	-5.31497
1242.02	-5.10562
1242.48	-5.08748
1242.94	-5.1974
1243.4	-5.30344
1243.87	-5.36963
1244.33	-5.25684
1244.79	-5.15854
1245.25	-4.99365
1245.71	-4.84867
1246.17	-4.62062
1246.63	-4.2943
1247.09	-4.32883
1247.55	-4.6579
1248.01	-4.87094
1248.47	-5.33641
1248.93	-5.62988
1249.39	-5.96679
1249.85	-5.7742
1250.31	-5.57281
1250.77	-4.81156
1251.23	-4.7316
1251.7	-4.91036
1252.16	-5.01506
1252.62	-5.07491
1253.08	-5.07926
1253.53	-5.04524
1253.99	-5.18518
1254.45	-5.34261
1254.91	-5.46766
1255.37	-5.21617
1255.83	-5.11237
1256.29	-5.06276
1256.75	-5.05263
1257.21	-5.12004
1257.67	-5.22214
1258.13	-5.34268
1258.59	-5.45267
1259.05	-5.58063
1259.51	-5.67819
1259.97	-5.69143
1260.43	-5.83745
1260.88	-5.88764
1261.34	-6.07772
1261.8	-6.17238
1262.26	-6.25649
1262.72	-6.10375
1263.18	-5.90498
1263.64	-5.71807
1264.1	-5.41133
1264.55	-5.21412
1265.01	-4.9877
1265.47	-4.7304
1265.93	-4.42545
1266.39	-4.31274
1266.85	-4.37951
1267.3	-4.4161
1267.76	-4.56016
1268.22	-4.64101
1268.68	-4.68824
1269.14	-4.68746
1269.6	-4.57143
1270.05	-4.4308
1270.51	-4.14443
1270.97	-4.07769
1271.43	-4.06496
1271.88	-4.16042
1272.34	-4.14774
1272.8	-4.20727
1273.26	-4.29981
1273.71	-4.26634
1274.17	-4.25992
1274.63	-4.14602
1275.08	-4.18237
1275.54	-4.32637
1276	-4.27516
1276.46	-4.17052
1276.91	-4.10377
1277.37	-4.14706
1277.83	-4.16076
1278.28	-4.03918
1278.74	-3.82846
1279.2	-3.33917
1279.65	-3.1139
1280.11	-2.91285
1280.57	-2.73128
1281.02	-2.64234
1281.48	-2.68993
1281.94	-2.85682
1282.39	-2.84291
1282.85	-2.73726
1283.3	-2.8304
1283.76	-2.94313
1284.22	-2.97968
1284.67	-3.18778
1285.13	-3.18683
1285.58	-2.7438
1286.04	-2.78382
1286.49	-2.87852
1286.95	-2.70057
1287.41	-2.52528
1287.86	-2.33149
1288.32	-2.23431
1288.77	-2.11516
1289.23	-2.05197
1289.68	-2.09006
1290.14	-2.081
1290.59	-2.27936
1291.05	-2.4878
1291.5	-2.6865
1291.96	-3.04702
1292.41	-3.34839
1292.87	-3.49423
1293.32	-3.65909
1293.78	-3.81217
1294.23	-3.92414
1294.69	-3.97017
1295.14	-3.69377
1295.6	-3.3755
1296.05	-3.36068
1296.51	-3.25111
1296.96	-3.15835
1297.42	-3.05485
1297.87	-3.19745
1298.32	-3.13625
1298.78	-3.07189
1299.23	-2.99288
1299.69	-3.0315
1300.14	-3.2218
1300.59	-3.44688
1301.05	-3.74449
1301.5	-3.95854
1301.96	-3.85511
1302.41	-4.00629
1302.86	-4.10866
1303.32	-4.20073
1303.77	-4.37564
1304.22	-4.44958
1304.68	-4.30924
1305.13	-4.32132
1305.58	-4.11775
1306.04	-3.81947
1306.49	-3.40786
1306.94	-3.06918
1307.4	-2.58502
1307.85	-2.18888
1308.3	-1.9273
1308.76	-1.86455
1309.21	-1.99705
1309.66	-2.16144
1310.11	-2.29647
1310.57	-2.36005
1311.02	-2.35302
1311.47	-2.33161
1311.92	-2.26987
1312.38	-2.21901
1312.83	-2.42984
1313.28	-2.39277
1313.74	-2.45099
1314.19	-2.82616
1314.64	-3.13783
1315.09	-3.52825
1315.54	-3.67848
1315.99	-3.76934
1316.45	-3.68486
1316.9	-3.50055
1317.35	-3.29314
1317.8	-3.1136
1318.25	-2.89216
1318.71	-2.8603
1319.16	-3.01122
1319.61	-3.40131
1320.06	-3.81419
1320.51	-3.98933
1320.96	-4.13584
1321.41	-4.37716
1321.87	-4.50835
1322.32	-4.57022
1322.77	-4.66597
1323.22	-4.57715
1323.67	-4.3911
1324.12	-4.11484
1324.57	-3.9303
1325.02	-3.8089
1325.47	-3.76096
1325.92	-3.71773
1326.38	-3.68642
1326.83	-3.66772
1327.28	-3.33071
1327.73	-3.27191
1328.18	-3.41227
1328.63	-3.38905
1329.08	-3.50697
1329.53	-3.86229
1329.98	-4.32887
1330.43	-5.08532
1330.88	-5.59394
1331.33	-6.00921
1331.78	-6.11614
1332.23	-6.15418
1332.68	-5.93374
1333.13	-5.65519
1333.58	-5.14725
1334.03	-4.6967
1334.48	-4.47992
1334.93	-4.348
1335.38	-4.30128
1335.83	-4.27199
1336.28	-4.25794
1336.73	-4.48483
1337.18	-5.00444
1337.63	-5.10023
1338.07	-5.3638
1338.52	-5.3986
1338.97	-5.53537
1339.42	-5.69342
1339.87	-5.80343
1340.32	-5.85302
1340.77	-5.86056
1341.22	-5.92191
1341.67	-5.92309
1342.11	-5.95687
1342.56	-5.88886
1343.01	-5.8046
1343.46	-5.72241
1343.91	-5.50352
1344.36	-5.25574
1344.81	-4.95034
1345.25	-4.70096
1345.7	-4.51894
1346.15	-4.56921
1346.6	-4.5471
1347.05	-4.54459
1347.5	-4.49497
1347.94	-4.32837
1348.39	-3.95647
1348.84	-3.85652
1349.29	-3.83822
1349.73	-3.8866
1350.18	-3.99394
1350.63	-4.24683
1351.08	-4.48013
1351.52	-4.80971
1351.97	-5.08194
1352.42	-5.28573
1352.87	-5.42563
1353.31	-5.57607
1353.76	-5.63754
1354.21	-5.66296
1354.66	-5.59064
1355.1	-5.54126
1355.55	-5.52337
1356	-5.43949
1356.44	-5.47082
1356.89	-5.32906
1357.34	-5.34734
1357.78	-5.36532
1358.23	-5.44342
1358.68	-5.52502
1359.12	-5.63556
1359.57	-5.84043
1360.02	-6.15061
1360.46	-6.32094
1360.91	-6.45481
1361.36	-6.26911
1361.8	-6.10685
1362.25	-5.82024
1362.69	-5.40706
1363.14	-5.13488
1363.59	-4.83547
1364.03	-4.78242
1364.48	-4.69799
1364.92	-4.73996
1365.37	-4.89104
1365.82	-4.99477
1366.26	-5.09314
1366.71	-5.12916
1367.15	-5.14666
1367.6	-5.32786
1368.04	-5.38002
1368.49	-5.55286
1368.93	-5.67879
1369.38	-5.84406
1369.82	-6.02067
1370.27	-6.10877
1370.71	-6.18853
1371.16	-6.26086
1371.6	-6.26082
1372.05	-6.26029
1372.49	-6.40907
1372.94	-6.69899
1373.38	-6.8908
1373.83	-6.79897
1374.27	-6.62672
1374.72	-6.47205
1375.16	-6.26121
1375.61	-6.05654
1376.05	-5.99619
1376.5	-5.91158
1376.94	-5.78537
1377.38	-5.58897
1377.83	-5.39761
1378.27	-5.19701
1378.72	-4.88528
1379.16	-4.75536
1379.6	-4.83894
1380.05	-4.95611
1380.49	-5.26562
1380.94	-5.53571
1381.38	-5.73514
1381.82	-5.76921
1382.27	-5.89531
1382.71	-5.93996
1383.15	-5.93571
1383.6	-5.83356
1384.04	-5.77601
1384.48	-5.74087
1384.93	-5.80506
1385.37	-5.7851
1385.81	-5.50361
1386.26	-5.28387
1386.7	-5.30827
1387.14	-5.33412
1387.59	-5.55548
1388.03	-5.65521
1388.47	-5.73164
1388.91	-6.08874
1389.36	-6.24275
1389.8	-6.39667
1390.24	-6.45255
1390.68	-6.40152
1391.13	-6.36979
1391.57	-6.23471
1392.01	-6.08522
1392.45	-6.01403
1392.9	-5.94674
1393.34	-5.80185
1393.78	-5.73674
1394.22	-5.81007
1394.66	-5.90859
1395.11	-6.00254
1395.55	-6.19227
1395.99	-6.33483
1396.43	-6.24927
1396.87	-6.23044
1397.32	-6.17681
1397.76	-6.4132
1398.2	-6.37462
1398.64	-6.50002
1399.08	-6.41358
1399.52	-6.29594
1399.96	-6.70054
1400.41	-6.50008
1400.85	-6.38833
1401.29	-6.21589
1401.73	-5.96707
1402.17	-5.83069
1402.61	-5.72918
1403.05	-5.79442
1403.49	-5.50267
1403.93	-5.39233
1404.38	-5.08125
1404.82	-4.95351
1405.26	-4.89388
1405.7	-4.95304
1406.14	-5.00088
1406.58	-5.06526
1407.02	-5.03436
1407.46	-5.0894
1407.9	-5.05708
1408.34	-5.05735
1408.78	-4.97323
1409.22	-4.90418
1409.66	-4.87489
1410.1	-4.9303
1410.54	-5.0345
1410.98	-5.17555
1411.42	-5.35034
1411.86	-5.55103
1412.3	-5.73971
1412.74	-5.84759
1413.18	-5.79469
1413.62	-5.765
1414.06	-5.56451
1414.5	-5.3393
1414.94	-5.20411
1415.38	-5.07799
1415.82	-4.98524
1416.26	-4.81319
1416.69	-4.74593
1417.13	-4.72614
1417.57	-4.58656
1418.01	-4.62899
1418.45	-4.5631
1418.89	-4.61075
1419.33	-4.55936
1419.77	-4.64752
1420.21	-4.71145
1420.64	-4.64041
1421.08	-4.60573
1421.52	-4.53715
1421.96	-4.44683
1422.4	-4.31521
1422.84	-4.27587
1423.28	-4.20171
1423.71	-4.08023
1424.15	-4.01475
1424.59	-3.95649
1425.03	-3.87372
1425.47	-3.8408
1425.9	-3.79056
1426.34	-3.75223
1426.78	-3.74537
1427.22	-3.90902
1427.66	-4.21592
1428.09	-4.3549
1428.53	-4.75824
1428.97	-4.52866
1429.41	-4.22542
1429.84	-4.11743
1430.28	-3.8564
1430.72	-3.65129
1431.16	-3.46614
1431.59	-3.6281
1432.03	-4.08137
1432.47	-4.23843
1432.91	-4.32755
1433.34	-4.4298
1433.78	-4.55765
1434.22	-4.68765
1434.65	-4.78041
1435.09	-4.85009
1435.53	-4.70634
1435.96	-4.68082
1436.4	-4.72163
1436.84	-4.6882
1437.27	-4.61775
1437.71	-4.51181
1438.15	-4.29826
1438.58	-4.10553
1439.02	-3.32833
1439.46	-3.30137
1439.89	-3.38282
1440.33	-3.37993
1440.76	-3.38841
1441.2	-3.48062
1441.64	-3.57955
1442.07	-3.65448
1442.51	-3.7661
1442.94	-3.82383
1443.38	-3.81707
1443.82	-3.75771
1444.25	-3.77585
1444.69	-4.04289
1445.12	-4.16518
1445.56	-4.19215
1445.99	-4.32251
1446.43	-4.53722
1446.86	-4.89508
1447.3	-5.19912
1447.73	-5.40833
1448.17	-5.77329
1448.6	-6.02248
1449.04	-6.17821
1449.47	-6.29748
1449.91	-6.34784
1450.34	-6.29596
1450.78	-6.03348
1451.21	-5.78104
1451.65	-5.57557
1452.08	-5.43225
1452.52	-5.36914
1452.95	-5.35963
1453.39	-5.25996
1453.82	-5.12289
1454.26	-5.00222
1454.69	-4.87933
1455.12	-4.81043
1455.56	-4.78623
1455.99	-4.7794
1456.43	-4.86263
1456.86	-5.03616
1457.3	-5.282
1457.73	-5.50628
1458.16	-5.6751
1458.6	-5.78011
1459.03	-5.8353
1459.46	-5.82435
1459.9	-5.75441
1460.33	-5.64576
1460.77	-5.49636
1461.2	-5.30624
1461.63	-5.08889
1462.07	-4.87235
1462.5	-4.54337
1462.93	-4.31168
1463.37	-4.21281
1463.8	-4.31441
1464.23	-4.55119
1464.67	-4.84086
1465.1	-5.19939
1465.53	-5.62121
1465.96	-5.96652
1466.4	-6.25814
1466.83	-6.33901
1467.26	-6.25867
1467.69	-5.97436
1468.13	-5.64524
1468.56	-5.34641
1468.99	-5.17689
1469.43	-5.14713
1469.86	-5.19245
1470.29	-5.31884
1470.72	-5.29938
1471.15	-5.08014
1471.59	-4.82343
1472.02	-4.6159
1472.45	-4.51177
1472.69	-4.49549
1473.14	-4.68326
1473.59	-4.97841
1474.03	-5.31255
1474.48	-5.48973
1474.93	-5.47997
1475.37	-5.50127
1475.82	-5.74566
1476.26	-6.05859
1476.71	-6.57501
1477.16	-6.67843
1477.6	-6.59311
1478.05	-6.35372
1478.49	-6.20268
1478.94	-6.10712
1479.39	-6.04806
1479.83	-6.68507
1480.28	-6.70469
1480.72	-7.41942
1481.17	-6.84874
1481.61	-6.20312
1482.06	-5.92439
1482.5	-5.63811
1482.95	-5.76313
1483.4	-10.1836
1483.84	-9.86041
1484.29	-6.25598
1484.73	-5.8669
1485.18	-5.41277
1485.62	-4.88934
1486.07	-5.82322
1486.51	-5.55151
1486.96	-5.30802
1487.4	-5.05474
1487.85	-5.09894
1488.29	-5.27467
1488.73	-5.62689
1489.18	-5.65833
1489.62	-5.73476
1490.07	-5.72672
1490.51	-5.72943
1490.96	-5.73003
1491.4	-5.73811
1491.85	-5.54271
1492.29	-5.36636
1492.73	-5.26319
1493.18	-5.36759
1493.62	-5.5144
1494.07	-5.69585
1494.51	-5.86596
1494.95	-6.0832
1495.4	-6.2478
1495.84	-6.39518
1496.29	-6.60611
1496.73	-6.83419
1497.17	-7.0541
1497.62	-7.29471
1498.06	-7.45168
1498.5	-7.53873
1498.95	-7.55326
1499.39	-7.24585
1499.83	-7.13194
1500.28	-7.19963
1500.72	-7.0927
1501.16	-7.04889
1501.61	-7.0088
1502.05	-7.05979
1502.49	-7.05174
1502.94	-6.91412
1503.38	-6.58662
1503.82	-6.29587
1504.26	-6.05447
1504.71	-5.6964
1505.15	-5.51905
1505.59	-5.2649
1506.03	-5.17828
1506.48	-4.9836
1506.92	-4.89196
1507.36	-4.81558
1507.8	-4.78589
1508.25	-5.09635
1508.69	-5.40635
1509.13	-5.66228
1509.57	-5.91002
1510.02	-6.14184
1510.46	-6.19163
1510.9	-6.30348
1511.34	-6.34938
1511.78	-6.38219
1512.22	-6.3504
1512.67	-6.37617
1513.11	-6.60792
1513.55	-6.81462
1513.99	-7.11145
1514.43	-7.35561
1514.87	-7.55898
1515.31	-7.79052
1515.76	-7.76485
1516.2	-7.75736
1516.64	-7.46588
1517.08	-7.05782
1517.52	-6.58125
1517.96	-6.02155
1518.4	-5.40453
1518.84	-5.02697
1519.29	-4.81065
1519.73	-4.79111
1520.17	-4.78442
1520.61	-4.80107
1521.05	-4.87338
1521.49	-4.89412
1521.93	-4.98423
1522.37	-5.1527
1522.81	-5.24393
1523.25	-5.29715
1523.69	-5.30126
1524.13	-5.45073
1524.57	-5.55225
1525.01	-5.58693
1525.45	-5.56438
1525.89	-5.53922
1526.33	-5.49545
1526.77	-5.26676
1527.21	-5.01795
1527.65	-4.81055
1528.09	-4.63203
1528.53	-4.61877
1528.97	-4.77277
1529.41	-4.95414
1529.85	-5.06465
1530.29	-5.16855
1530.73	-5.25884
1531.17	-5.3997
1531.61	-5.51083
1532.05	-5.61977
1532.49	-5.49615
1532.93	-5.5741
1533.37	-5.58828
1533.81	-5.60836
1534.24	-5.70753
1534.68	-5.71554
1535.12	-5.81909
1535.56	-5.79103
1536	-5.76727
1536.44	-5.61334
1536.88	-5.41296
1537.32	-5.34568
1537.76	-5.42291
1538.19	-5.49772
1538.63	-5.54507
1539.07	-5.61771
1539.51	-5.75186
1539.95	-5.79854
1540.39	-5.71196
1540.82	-5.6003
1541.26	-5.57635
1541.7	-5.54551
1542.14	-5.48901
1542.58	-5.14339
1543.02	-4.68808
1543.45	-4.20626
1543.89	-3.82881
1544.33	-3.32622
1544.77	-2.86066
1545.2	-2.79726
1545.64	-2.80818
1546.08	-2.74126
1546.52	-2.72704
1546.95	-2.63664
1547.39	-2.54339
1547.83	-2.39812
1548.27	-2.22347
1548.7	-2.11194
1549.14	-1.95164
1549.58	-1.79347
1550.02	-1.6368
1550.45	-1.4715
1550.89	-1.2787
1551.33	-1.02564
1551.76	-0.762885
1552.2	-0.495124
1552.64	-0.110168
1553.08	0.179686
1553.51	0.306814
1553.95	0.281437
1554.39	0.262468
1554.82	0.19023
1555.26	0.142328
1555.7	-0.080211
1556.13	-0.311719
1556.57	-0.521162
1557	-0.691545
1557.44	-0.810408
1557.88	-0.715995
1558.31	-0.403701
1558.75	0.0575355
1559.18	0.629224
1559.62	1.23872
1560.06	1.97506
1560.49	2.78541
1560.93	3.2657
1561.36	3.8213
1561.8	4.41663
1562.24	5.12977
1562.67	5.90709
1563.11	6.74966
1563.54	7.69951
1563.98	8.70701
1564.41	9.78666
1564.85	10.6165
1565.28	11.623
1565.72	13.0108
1566.15	14.2388
1566.59	15.4306
1567.02	16.7418
1567.46	18.1096
1567.89	19.4561
1568.33	20.8676
1568.76	22.5595
1569.2	24.3121
1569.63	26.3355
1570.07	28.7747
1570.5	31.1827
1570.94	33.7447
1571.37	36.7321
1571.81	40.0149
1572.24	43.3125
1572.68	46.6856
1573.11	50.1877
1573.54	53.7643
1573.98	57.0082
1574.41	60.2779
1574.85	63.4431
1575.28	66.288
1575.71	68.5225
1576.15	70.1785
1576.58	71.3209
1577.02	72.0567
1577.45	71.8313
1577.88	71.4308
1578.32	70.0652
1578.75	68.4464
1579.18	65.6061
1579.62	62.2219
1580.05	58.3751
1580.49	53.9713
1580.92	49.4877
1581.35	45.2481
1581.78	41.0026
1582.22	37.2401
1582.65	34.0882
1583.08	30.9745
1583.52	28.1173
1583.95	25.2124
1584.38	22.7628
1584.82	20.5774
1585.25	18.535
1585.68	16.6689
1586.11	14.9909
1586.55	13.4721
1586.98	12.0164
1587.41	10.8389
1587.85	9.78576
1588.28	8.8531
1588.71	7.83786
1589.14	7.00882
1589.57	6.55385
1590.01	6.09497
1590.44	5.56023
1590.87	4.90576
1591.3	4.31301
1591.73	3.69067
1592.17	3.19974
1592.6	2.74395
1593.03	2.29552
1593.46	1.97053
1593.89	1.56357
1594.33	1.27998
1594.76	1.0484
1595.19	0.750004
1595.62	0.335089
1596.05	0.0197845
1596.48	-0.294385
1596.91	-0.535821
1597.35	-0.739283
1597.78	-0.921449
1598.21	-1.08127
1598.64	-1.18435
1599.07	-1.23635
1599.5	-1.30845
1599.93	-1.34629
1600.36	-1.46804
1600.79	-1.51393
1601.23	-1.57415
1601.66	-1.60015
1602.09	-2.05665
1602.52	-2.38379
1602.95	-2.57097
1603.38	-2.80254
1603.81	-2.86609
1604.24	-2.92622
1604.67	-3.13889
1605.1	-3.18341
1605.53	-3.11765
1605.96	-2.95626
1606.39	-2.8091
1606.82	-2.68785
1607.25	-2.49681
1607.68	-2.31104
1608.11	-2.15088
1608.54	-2.00457
1608.97	-1.93782
1609.4	-1.88923
1609.83	-1.92447
1610.26	-2.06964
1610.69	-2.29639
1611.12	-2.50433
1611.55	-2.55585
1611.98	-2.69402
1612.41	-2.8426
1612.84	-3.01183
1613.27	-3.22114
1613.7	-3.46225
1614.13	-3.87711
1614.56	-3.92699
1614.98	-3.84352
1615.41	-3.89516
1615.84	-4.00063
1616.27	-4.10136
1616.7	-4.1758
1617.13	-4.2452
1617.56	-4.1928
1617.99	-4.25694
1618.42	-4.34259
1618.84	-4.4728
1619.27	-4.98186
1619.7	-5.34941
1620.13	-5.76888
1620.56	-5.66463
1620.99	-5.45826
1621.42	-5.34797
1621.84	-5.13323
1622.27	-5.04936
1622.7	-5.01702
1623.13	-4.86219
1623.56	-4.72834
1623.99	-4.53642
1624.41	-4.40138
1624.84	-4.30564
1625.27	-4.21737
1625.7	-4.31333
1626.12	-4.31553
1626.55	-4.40286
1626.98	-4.31915
1627.41	-4.22644
1627.83	-4.16896
1628.26	-4.14975
1628.69	-4.1446
1629.12	-3.91279
1629.55	-3.82621
1629.97	-3.71506
1630.4	-3.64655
1630.83	-3.5078
1631.25	-3.47567
1631.68	-3.4392
1632.11	-3.49645
1632.53	-3.51454
1632.96	-3.55769
1633.39	-3.58982
1633.82	-3.63862
1634.24	-3.66625
1634.67	-3.70306
1635.1	-3.84554
1635.52	-3.96821
1635.95	-3.92589
1636.37	-3.92925
1636.8	-3.99198
1637.23	-4.192
1637.65	-4.4336
1638.08	-4.70754
1638.51	-4.82132
1638.93	-4.94918
1639.36	-5.06931
1639.78	-5.07081
1640.21	-5.06642
1640.64	-5.03175
1641.06	-5.13722
1641.49	-5.41691
1641.91	-5.71453
1642.34	-5.94075
1642.77	-6.15022
1643.19	-6.44388
1643.62	-6.90737
1644.04	-7.09476
1644.47	-7.12139
1644.89	-7.06621
1645.32	-6.94709
1645.74	-6.7605
1646.17	-6.55182
1646.59	-6.33102
1647.02	-6.1823
1647.45	-6.08236
1647.87	-5.98075
1648.3	-5.91895
1648.72	-5.896
1649.15	-5.88781
1649.57	-5.8109
1649.99	-5.76616
1650.42	-5.70325
1650.84	-5.56589
1651.27	-5.49234
1651.69	-5.37743
1652.12	-5.466
1652.54	-5.59022
1652.97	-5.4518
1653.39	-5.27742
1653.82	-5.27046
1654.24	-5.19024
1654.66	-5.23356
1655.09	-5.3007
1655.51	-5.31403
1655.94	-5.27992
1656.36	-5.10439
1656.78	-5.12483
1657.21	-5.10782
1657.63	-5.07141
1658.06	-5.12816
1658.48	-5.19461
1658.9	-5.34577
1659.33	-5.66705
1659.75	-5.9386
1660.17	-6.25382
1660.6	-6.55595
1661.02	-6.71848
1661.44	-6.67901
1661.87	-6.85482
1662.29	-6.51934
1662.71	-6.25561
1663.14	-5.82255
1663.56	-5.59907
1663.98	-5.44904
1664.41	-5.28542
1664.83	-5.08014
1665.25	-4.84127
1665.67	-4.59639
1666.1	-4.31295
1666.52	-4.1315
1666.94	-3.8962
1667.37	-3.8454
1667.79	-4.00483
1668.21	-4.28787
1668.63	-4.53376
1669.06	-4.81423
1669.48	-5.14053
1669.9	-5.25172
1670.32	-5.36119
1670.74	-5.43051
1671.17	-5.57247
1671.59	-5.66984
1672.01	-5.74993
1672.43	-5.80031
1672.85	-5.81297
1673.28	-5.86188
1673.7	-5.89921
1674.12	-5.75479
1674.54	-5.59732
1674.96	-5.41161
1675.38	-5.31672
1675.81	-5.11989
1676.23	-4.9737
1676.65	-4.78671
1677.07	-4.65383
1677.49	-4.57637
1677.91	-4.5174
1678.34	-4.48484
1678.76	-4.5162
1679.18	-4.58287
1679.6	-4.61742
1680.02	-4.76329
1680.44	-5.05698
1680.86	-5.42747
1681.28	-5.68141
1681.7	-5.79757
1682.12	-6.10728
1682.54	-6.38435
1682.97	-6.66687
1683.39	-6.90671
1683.81	-7.07657
1684.23	-6.98234
1684.65	-6.76413
1685.07	-6.47169
1685.49	-6.07886
1685.91	-6.00278
1686.33	-5.92566
1686.75	-5.78637
1687.17	-5.68589
1687.59	-5.572
1688.01	-5.53504
1688.43	-5.52735
1688.85	-5.78856
1689.27	-6.06164
1689.69	-6.31773
1690.11	-6.59155
1690.53	-6.85391
1690.95	-7.24176
1691.37	-7.64919
1691.79	-8.62519
1692.21	-9.17624
1692.63	-9.57375
1693.05	-9.34621
1693.46	-8.93714
1693.88	-8.49568
1694.3	-8.20146
1694.72	-7.90216
1695.14	-7.60669
1695.56	-7.40072
1695.98	-7.22484
1696.4	-7.04254
1696.82	-6.65887
1697.24	-6.50249
1697.66	-6.26762
1698.07	-6.17266
1698.49	-6.2743
1698.91	-6.51234
1699.33	-6.7647
1699.75	-7.07115
1700.17	-7.34636
1700.59	-7.51778
1701	-7.60396
1701.42	-7.63087
1701.84	-7.76631
1702.26	-7.66524
1702.68	-7.55763
1703.1	-7.76284
1703.51	-8.06115
1703.93	-8.40667
1704.35	-7.98501
1704.77	-7.49295
1705.19	-6.70665
1705.6	-6.49379
1706.02	-6.21896
1706.44	-6.05951
1706.86	-6.06964
1707.27	-6.0513
1707.69	-6.02604
1708.11	-5.99945
1708.53	-5.94504
1708.94	-5.88281
1709.36	-5.81211
1709.78	-5.82531
1710.2	-5.95237
1710.61	-5.82826
1711.03	-5.68566
1711.45	-5.71416
1711.86	-5.75429
1712.28	-5.87792
1712.7	-5.74505
1713.12	-5.60824
1713.53	-5.49312
1713.95	-5.39252
1714.37	-5.52476
1714.78	-5.64599
1715.2	-5.67802
1715.62	-5.87544
1716.03	-6.17953
1716.45	-6.43152
1716.87	-6.68659
1717.28	-6.96855
1717.7	-6.97812
1718.11	-6.88211
1718.53	-6.802
1718.95	-6.68724
1719.36	-6.57881
1719.78	-6.38651
1720.19	-6.18269
1720.61	-6.06985
1721.03	-6.13252
1721.44	-6.21449
1721.86	-6.31741
1722.27	-6.52781
1722.69	-6.7468
1723.1	-6.89938
1723.52	-7.02953
1723.94	-7.12155
1724.35	-7.14422
1724.77	-7.13587
1725.18	-7.12029
1725.6	-7.09436
1726.01	-6.93331
1726.43	-6.65655
1726.84	-6.48124
1727.26	-6.28489
1727.67	-6.16626
1728.09	-6.19983
1728.5	-6.23788
1728.92	-6.32721
1729.33	-6.37699
1729.75	-6.47457
1730.16	-6.52681
1730.58	-6.5617
1730.99	-6.60268
1731.41	-6.72715
1731.82	-6.81966
1732.24	-6.91868
1732.65	-6.99262
1733.06	-7.10653
1733.48	-7.25313
1733.89	-7.38919
1734.31	-7.5204
1734.72	-7.58413
1735.14	-7.62073
1735.55	-7.61121
1735.96	-7.50696
1736.38	-7.35948
1736.79	-7.24263
1737.21	-7.11955
1737.62	-6.98846
1738.03	-6.82327
1738.45	-6.61936
1738.86	-6.42215
1739.27	-6.25563
1739.69	-6.06133
1740.1	-5.93475
1740.51	-5.95645
1740.93	-6.18921
1741.34	-6.50109
1741.75	-6.65233
1742.17	-6.83412
1742.58	-6.88585
1742.99	-7.12948
1743.41	-6.89343
1743.82	-6.79426
1744.23	-6.67547
1744.65	-6.68166
1745.06	-6.85526
1745.47	-6.94332
1745.88	-6.82404
1746.3	-6.72945
1746.71	-6.6574
1747.12	-6.55741
1747.53	-6.52252
1747.95	-6.44187
1748.36	-6.61888
1748.77	-6.87821
1749.18	-7.18134
1749.6	-7.51712
1750.01	-7.77387
1750.42	-7.82246
1750.83	-7.73738
1751.25	-7.70354
1751.66	-7.65128
1752.07	-7.62366
1752.48	-7.50206
1752.89	-7.22397
1753.3	-6.83538
1753.72	-6.40756
1754.13	-6.02867
1754.54	-5.64398
1754.95	-5.5478
1755.36	-5.62521
1755.77	-5.42184
1756.19	-5.31807
1756.6	-4.97935
1757.01	-4.96171
1757.42	-5.25239
1757.83	-5.68191
1758.24	-6.03906
1758.65	-6.41078
1759.06	-6.73722
1759.48	-7.02476
1759.89	-7.24596
1760.3	-7.4231
1760.71	-7.55676
1761.12	-7.70303
1761.53	-7.59332
1761.94	-7.35736
1762.35	-7.12508
1762.76	-6.81483
1763.17	-6.5057
1763.58	-6.37209
1763.99	-6.47563
1764.4	-6.51062
1764.81	-6.55994
1765.22	-6.5902
1765.63	-6.52755
1766.05	-6.55149
1766.46	-6.45571
1766.87	-6.29948
1767.28	-6.16674
1767.69	-5.98391
1768.09	-5.80915
1768.5	-5.64501
1768.91	-5.51702
1769.32	-5.40743
1769.73	-5.29545
1770.14	-5.20545
1770.55	-5.14647
1770.96	-5.12015
1771.37	-5.07448
1771.78	-5.03182
1772.19	-5.06336
1772.6	-5.1172
1773.01	-5.18607
1773.42	-5.34866
1773.83	-5.49521
1774.24	-5.66823
1774.65	-5.74457
1775.06	-5.90898
1775.47	-6.05246
1775.87	-6.16877
1776.28	-6.27688
1776.69	-6.30643
1777.1	-6.33521
1777.51	-6.35142
1777.92	-6.40596
1778.33	-6.38581
1778.74	-6.44816
1779.14	-6.52019
1779.55	-6.59166
1779.96	-6.50166
1780.37	-6.44149
1780.78	-6.4145
1781.19	-6.32514
1781.59	-6.31379
1782	-6.3315
1782.41	-6.28024
1782.82	-6.35125
1783.23	-6.61417
1783.63	-6.83377
1784.04	-7.06095
1784.45	-6.63029
1784.86	-6.64854
1785.27	-6.51416
1785.67	-6.49849
1786.08	-6.48174
1786.49	-6.30794
1786.9	-6.21975
1787.3	-6.06517
1787.71	-6.00859
1788.12	-5.97703
1788.53	-5.9428
1788.93	-5.88227
1789.34	-5.84751
1789.75	-5.76449
1790.15	-5.77657
1790.56	-5.67372
1790.97	-5.61076
1791.38	-5.68507
1791.78	-5.76599
1792.19	-5.71556
1792.6	-5.55834
1793	-5.34738
1793.41	-4.95908
1793.82	-4.80147
1794.22	-4.80136
1794.63	-4.84349
1795.04	-4.93588
1795.44	-5.03294
1795.85	-5.24754
1796.26	-5.3383
1796.66	-5.37961
1797.07	-5.37063
1797.47	-5.30258
1797.88	-5.07338
1798.29	-4.91711
1798.69	-4.85074
1799.1	-4.79418
1799.5	-4.75852
1799.91	-4.75073
1800.32	-4.70508
1800.72	-4.74526
1801.13	-4.81398
1801.53	-4.8314
1801.94	-4.85571
1802.34	-4.96559
1802.75	-5.05413
1803.15	-5.1559
1803.56	-5.34939
1803.97	-5.53205
1804.37	-5.70264
1804.78	-5.80329
1805.18	-5.91564
1805.59	-5.78055
1805.99	-5.64925
1806.4	-5.52108
1806.8	-5.31676
1807.21	-5.31608
1807.61	-5.26153
1808.02	-5.20496
1808.42	-5.2236
1808.83	-5.2248
1809.23	-5.23207
1809.64	-5.25749
1810.04	-5.17214
1810.44	-5.0823
1810.85	-4.93721
1811.25	-4.80006
1811.66	-4.67772
1812.06	-4.57405
1812.47	-4.4866
1812.87	-4.44656
1813.28	-4.53986
1813.68	-4.76162
1814.08	-4.83617
1814.49	-4.87815
1814.89	-4.98773
1815.29	-5.00942
1815.7	-5.14589
1816.1	-5.24305
1816.51	-5.39043
1816.91	-5.51577
1817.31	-5.60597
1817.72	-5.49324
1818.12	-5.26193
1818.52	-5.15698
1818.93	-5.10784
1819.33	-5.01942
1819.73	-4.98267
1820.14	-4.87989
1820.54	-4.66078
1820.94	-4.47714
1821.35	-4.34435
1821.75	-4.67086
1822.15	-5.09604
1822.56	-5.50136
1822.96	-5.83871
1823.36	-6.2678
1823.76	-6.35936
1824.17	-6.0895
1824.57	-5.8897
1824.97	-5.41731
1825.38	-5.00018
1825.78	-4.75044
1826.18	-4.84651
1826.58	-4.98444
1826.99	-5.12772
1827.39	-5.29647
1827.79	-5.51108
1828.19	-5.6715
1828.59	-5.73023
1829	-5.84415
1829.4	-5.87464
1829.8	-5.90719
1830.2	-5.86873
1830.6	-5.80687
1831.01	-5.66202
1831.41	-5.6473
1831.81	-5.69523
1832.21	-5.83635
1832.61	-5.96507
1833.02	-6.08935
1833.42	-6.24409
1833.82	-6.35219
1834.22	-6.34999
1834.62	-6.39885
1835.02	-6.55898
1835.42	-6.84758
1835.83	-7.28917
1836.23	-7.74856
1836.63	-6.48061
1837.03	-6.88303
1837.43	-7.05773
1837.83	-7.24909
1838.23	-7.34422
1838.63	-7.36807
1839.03	-7.12463
1839.44	-6.74637
1839.83	-6.46593
1840.24	-6.24513
1840.64	-6.05245
1841.04	-5.83832
1841.44	-5.60861
1841.84	-5.52031
1842.24	-5.66666
1842.64	-5.78447
1843.04	-5.89008
1843.44	-5.91252
1843.84	-5.88034
1844.24	-5.84674
1844.64	-5.85878
1845.04	-5.88241
1845.44	-5.96167
1845.84	-5.99277
1846.24	-6.00595
1846.64	-6.02194
1847.04	-5.98036
1847.44	-5.89049
1847.84	-5.9331
1848.24	-6.05701
1848.64	-6.06855
1849.04	-6.09449
1849.44	-6.06131
1849.84	-5.97455
1850.24	-6.07524
1850.64	-6.18151
1851.04	-6.16026
1851.44	-6.20921
1851.83	-6.11507
1852.23	-6.11951
1852.63	-6.10178
1853.03	-6.00619
1853.43	-5.87657
1853.83	-5.77257
1854.23	-5.67745
1854.63	-5.53089
1855.03	-5.41761
1855.43	-5.4739
1855.82	-5.61323
1856.22	-5.70956
1856.62	-5.74433
1857.02	-5.68285
1857.42	-5.4909
1857.82	-5.16789
1858.21	-4.93839
1858.61	-5.06191
1859.01	-5.18528
1859.41	-5.28905
1859.81	-5.36782
1860.21	-5.34366
1860.6	-5.33311
1861	-5.32682
1861.4	-5.31333
1861.8	-5.37686
1861.84	-5.38096
1862.25	-5.22706
1862.67	-5.3481
1863.08	-5.48061
1863.49	-5.73518
1863.9	-5.99604
1864.31	-6.43919
1864.72	-6.51049
1865.14	-6.15751
1865.55	-5.53135
1865.96	-5.5807
1866.37	-5.98716
1866.78	-6.23769
1867.19	-6.13059
1867.61	-5.6633
1868.02	-5.45747
1868.43	-5.52001
1868.84	-7.0428
1869.25	-7.04525
1869.66	-6.41276
1870.07	-5.82567
1870.48	-5.31567
1870.89	-5.44465
1871.31	-5.44319
1871.72	-5.4748
1872.13	-5.79094
1872.54	-5.54288
1872.95	-5.8263
1873.36	-5.32493
1873.77	-5.36055
1874.18	-5.35024
1874.59	-5.32015
1875	-5.29351
1875.41	-5.94483
1875.82	-5.44808
1876.23	-5.30398
1876.64	-5.09574
1877.05	-4.96926
1877.46	-4.90424
1877.87	-4.63427
1878.28	-4.91227
1878.69	-5.05515
1879.1	-4.84694
1879.51	-5.00133
1879.92	-5.44659
1880.33	-5.93939
1880.74	-6.32271
1881.15	-6.69282
1881.56	-6.95883
1881.97	-7.04988
1882.38	-7.05101
1882.79	-6.92555
1883.2	-6.80457
1883.61	-6.74463
1884.02	-6.56316
1884.43	-6.28333
1884.84	-6.0393
1885.25	-5.97792
1885.66	-6.1323
1886.06	-6.48469
1886.47	-7.06704
1886.88	-7.74962
1887.29	-7.86661
1887.7	-7.95245
1888.11	-7.65206
1888.52	-7.16177
1888.93	-6.27594
1889.34	-6.30844
1889.74	-6.35007
1890.15	-6.53313
1890.56	-6.66066
1890.97	-6.59659
1891.38	-7.59535
1891.79	-7.7734
1892.2	-7.02588
1892.6	-5.70611
1893.01	-4.73989
1893.42	-4.29014
1893.83	-4.0644
1894.24	-4.59972
1894.64	-4.46861
1895.05	-4.47598
1895.46	-4.03797
1895.87	-3.90233
1896.28	-4.13085
1896.68	-4.49604
1897.09	-5.04222
1897.5	-5.63763
1897.91	-6.32746
1898.32	-7.39127
1898.72	-7.56294
1899.13	-7.51135
1899.54	-6.97598
1899.95	-7.06347
1900.35	-6.41137
1900.76	-5.1684
1901.17	-4.83034
1901.57	-4.77406
1901.98	-4.50208
1902.39	-4.26576
1902.8	-4.10062
1903.2	-3.98171
1903.61	-3.96733
1904.02	-4.11221
1904.42	-4.18413
1904.83	-4.31351
1905.24	-4.58717
1905.64	-5.03675
1906.05	-5.32849
1906.46	-5.43229
1906.86	-5.39177
1907.27	-5.71945
1907.68	-5.98143
1908.08	-6.04574
1908.49	-6.10343
1908.9	-6.06028
1909.3	-5.9427
1909.71	-5.98132
1910.12	-6.19066
1910.52	-6.54895
1910.93	-6.91399
1911.33	-6.76827
1911.74	-6.60678
1912.14	-6.56004
1912.55	-6.4703
1912.96	-6.2944
1913.36	-6.00968
1913.77	-5.63928
1914.17	-5.42353
1914.58	-5.28356
1914.99	-5.24374
1915.39	-5.60284
1915.8	-5.52259
1916.2	-5.51275
1916.61	-5.41238
1917.01	-5.20817
1917.42	-5.00285
1917.82	-4.82058
1918.23	-4.6385
1918.63	-4.41841
1919.04	-4.33876
1919.44	-4.32488
1919.85	-4.40728
1920.25	-4.46732
1920.66	-4.45195
1921.06	-4.46873
1921.47	-4.53733
1921.87	-4.62173
1922.28	-4.59838
1922.68	-4.61704
1923.09	-4.90745
1923.49	-5.13716
1923.9	-5.42175
1924.3	-5.78573
1924.7	-6.19079
1925.11	-6.56144
1925.51	-6.7372
1925.92	-6.53902
1926.32	-6.36227
1926.73	-6.07454
1927.13	-5.76122
1927.53	-5.4575
1927.94	-5.06874
1928.34	-4.7155
1928.75	-4.40383
1929.15	-4.32952
1929.55	-4.37429
1929.96	-4.56344
1930.36	-4.97931
1930.76	-5.58375
1931.17	-6.44421
1931.57	-6.93056
1931.98	-7.31675
1932.38	-7.35545
1932.78	-7.45585
1933.19	-7.25162
1933.59	-6.87922
1933.99	-6.54224
1934.39	-6.20939
1934.8	-5.87479
1935.2	-5.54473
1935.6	-5.26748
1936.01	-4.98857
1936.41	-5.2598
1936.81	-5.21874
1937.22	-5.23003
1937.62	-5.44377
1938.02	-5.7682
1938.42	-6.15741
1938.83	-6.48285
1939.23	-6.58789
1939.63	-6.32587
1940.04	-6.02965
1940.44	-5.67656
1940.84	-5.31144
1941.24	-4.96414
1941.64	-4.94403
1942.05	-4.94965
1942.45	-4.90007
1942.85	-4.87986
1943.25	-4.98172
1943.65	-4.96658
1944.06	-4.88762
1944.46	-4.8909
1944.86	-5.10735
1945.26	-5.30852
1945.66	-6.07087
1946.07	-6.80691
1946.47	-6.9995
1946.87	-6.90153
1947.27	-6.74694
1947.67	-6.12846
1948.08	-6.24703
1948.48	-6.46177
1948.88	-6.37573
1949.28	-6.16922
1949.68	-5.91113
1950.08	-5.67332
1950.48	-5.72191
1950.88	-5.50505
1951.29	-5.29425
1951.69	-5.26159
1952.09	-5.34806
1952.49	-5.33281
1952.89	-5.24477
1953.29	-5.25837
1953.69	-5.21237
1954.09	-5.08032
1954.49	-4.92494
1954.89	-5.01766
1955.29	-5.03532
1955.69	-5.0974
1956.1	-5.11744
1956.5	-5.22535
1956.9	-5.24925
1957.3	-5.43481
1957.7	-5.45648
1958.1	-5.50186
1958.5	-5.56284
1958.9	-5.5843
1959.3	-5.67915
1959.7	-5.64872
1960.1	-5.61002
1960.5	-5.75567
1960.9	-6.03189
1961.3	-6.22418
1961.7	-6.22103
1962.1	-6.25205
1962.5	-6.19698
1962.9	-5.91701
1963.3	-5.51728
1963.7	-5.19738
1964.1	-4.98234
1964.5	-4.94594
1964.9	-5.07009
1965.29	-5.29393
1965.69	-5.48585
1966.09	-5.83656
1966.49	-6.13493
1966.89	-6.44296
1967.29	-6.73112
1967.69	-6.96401
1968.09	-6.99546
1968.49	-7.05398
1968.89	-7.01079
1969.29	-6.77229
1969.68	-6.54539
1970.08	-6.25995
1970.48	-5.91331
1970.88	-5.63208
1971.28	-5.30918
1971.68	-5.20259
1972.08	-5.11833
1972.47	-5.15814
1972.87	-5.25653
1973.27	-5.3219
1973.67	-5.34315
1974.07	-5.38919
1974.47	-5.46938
1974.86	-5.5946
1975.26	-5.66168
1975.66	-5.67294
1976.06	-5.64734
1976.46	-5.64659
1976.86	-5.64383
1977.25	-5.67973
1977.65	-5.71317
1978.05	-5.81944
1978.45	-5.80697
1978.84	-5.78179
1979.24	-5.71174
1979.64	-5.6807
1980.04	-5.77222
1980.44	-5.8568
1980.83	-5.82604
1981.23	-5.65021
1981.63	-5.59471
1982.03	-5.57987
1982.42	-5.53079
1982.82	-5.59186
1983.22	-5.471
1983.61	-5.23139
1984.01	-4.945
1984.41	-4.88746
1984.81	-4.68515
1985.2	-4.71863
1985.6	-4.76972
1986	-4.86793
1986.39	-4.95979
1986.79	-4.98998
1987.19	-4.93265
1987.58	-4.78854
1987.98	-4.69057
1988.38	-4.52609
1988.77	-4.18798
1989.17	-4.03682
1989.57	-4.02709
1989.96	-4.01549
1990.36	-4.05085
1990.75	-4.35596
1991.15	-4.7607
1991.55	-5.32743
1991.94	-5.6707
1992.34	-5.93433
1992.74	-6.16541
1993.13	-6.50662
1993.53	-6.81945
1993.92	-6.88394
1994.32	-6.87085
1994.71	-6.72963
1995.11	-6.35499
1995.51	-6.06511
1995.9	-5.73335
1996.3	-5.73984
1996.69	-5.7114
1997.09	-5.673
1997.48	-5.892
1997.88	-6.12906
1998.27	-6.26325
1998.67	-6.26533
1999.06	-6.13686
1999.46	-5.9714
1999.86	-5.75473
2000.25	-5.61613
2000.64	-5.5258
2001.04	-5.35006
2001.44	-5.19156
2001.83	-5.18892
2002.22	-5.30786
2002.62	-5.38856
2003.01	-5.27376
2003.41	-5.18802
2003.8	-5.14336
2004.2	-4.92168
2004.59	-4.78163
2004.99	-4.68873
2005.38	-4.66325
2005.78	-4.61388
2006.17	-4.64291
2006.56	-4.58294
2006.96	-4.58474
2007.35	-4.7124
2007.75	-4.78184
2008.14	-4.93341
2008.54	-5.07169
2008.93	-5.23019
2009.32	-5.41147
2009.72	-5.63605
2010.11	-5.85988
2010.51	-5.96086
2010.9	-6.04888
2011.29	-6.09901
2011.69	-6.15672
2012.08	-6.11624
2012.47	-5.92056
2012.87	-5.64254
2013.26	-5.29776
2013.65	-5.16449
2014.05	-5.00575
2014.44	-4.70812
2014.83	-4.37364
2015.23	-4.56615
2015.62	-4.96619
2016.01	-6.04358
2016.41	-6.06927
2016.8	-5.68944
2017.19	-5.12142
2017.59	-4.03401
2017.98	-4.37456
2018.37	-4.85618
2018.76	-5.30111
2019.16	-5.83566
2019.55	-6.19182
2019.94	-6.56182
2020.33	-6.65981
2020.73	-6.63864
2021.12	-6.71132
2021.51	-6.67672
2021.9	-6.44899
2022.3	-6.23423
2022.69	-5.73113
2023.08	-5.26906
2023.47	-4.99126
2023.87	-4.82828
2024.26	-4.86142
2024.65	-4.87282
2025.04	-5.22405
2025.43	-5.52814
2025.83	-5.93343
2026.22	-6.20236
2026.61	-6.33491
2027	-6.35766
2027.39	-6.41705
2027.79	-6.58029
2028.18	-6.73873
2028.57	-6.58387
2028.96	-6.35784
2029.35	-6.11737
2029.74	-6.0626
2030.13	-5.92015
2030.52	-5.83852
2030.92	-5.6456
2031.31	-5.33622
2031.7	-4.87157
2032.09	-4.48661
2032.48	-4.20924
2032.87	-3.99343
2033.26	-4.42991
2033.65	-5.03485
2034.05	-5.47483
2034.44	-5.87209
2034.83	-5.96878
2035.22	-5.97058
2035.61	-5.63029
2036	-5.45668
2036.39	-5.11187
2036.78	-4.86533
2037.17	-4.68724
2037.56	-4.77963
2037.95	-4.90415
2038.34	-4.99872
2038.73	-4.81242
2039.12	-4.7477
2039.51	-4.7857
2039.9	-5.00856
2040.29	-5.49718
2040.68	-5.56989
2041.07	-5.40559
2041.46	-4.84424
2041.85	-4.46556
2042.24	-4.62672
2042.63	-4.88822
2043.02	-4.96819
2043.41	-5.05436
2043.8	-5.52101
2044.19	-5.59417
2044.58	-5.79778
2044.97	-5.97498
2045.36	-6.10588
2045.75	-6.20875
2046.14	-6.36812
2046.53	-6.41995
2046.92	-6.38318
2047.31	-6.27772
2047.7	-6.02422
2048.08	-5.57519
2048.47	-5.22782
2048.86	-4.78459
2049.25	-4.64858
2049.64	-4.55036
2050.03	-4.55849
2050.42	-4.58023
2050.81	-4.60768
2051.2	-4.63034
2051.58	-4.70967
2051.97	-4.82828
2052.36	-4.8528
2052.75	-4.98144
2053.14	-5.08381
2053.53	-5.11083
2053.92	-5.04376
2054.3	-4.94643
2054.69	-4.87143
2055.08	-4.86261
2055.47	-4.79123
2055.86	-4.80371
2056.25	-4.79941
2056.63	-4.79105
2057.02	-4.81538
2057.41	-4.98359
2057.8	-5.41988
2058.18	-5.84186
2058.57	-6.40036
2058.96	-6.73306
2059.35	-6.90272
2059.74	-7.05822
2060.12	-6.6884
2060.51	-6.63281
2060.9	-6.54443
2061.29	-6.42635
2061.67	-6.18269
2062.06	-5.96428
2062.45	-5.71091
2062.84	-5.3538
2063.22	-5.08164
2063.61	-5.02072
2064	-4.94215
2064.38	-4.82606
2064.77	-4.78414
2065.16	-4.97295
2065.54	-5.09674
2065.93	-5.27421
2066.32	-5.25496
2066.71	-5.11396
2067.09	-4.99989
2067.48	-4.90331
2067.87	-4.80509
2068.25	-4.69601
2068.64	-4.70185
2069.03	-4.63141
2069.41	-4.68037
2069.8	-4.76859
2070.18	-4.98613
2070.57	-6.26044
2070.96	-5.36848
2071.34	-5.52328
2071.73	-5.63368
2072.12	-5.50942
2072.5	-5.48704
2072.89	-5.29364
2073.27	-5.14342
2073.66	-5.14469
2074.05	-5.41005
2074.43	-5.37772
2074.82	-5.33168
2075.2	-5.25156
2075.59	-5.09193
2075.97	-4.97122
2076.36	-4.98319
2076.75	-5.11441
2077.13	-5.24393
2077.52	-5.18208
2077.9	-5.31678
2078.29	-5.38013
2078.67	-5.47648
2079.06	-5.71963
2079.44	-5.79387
2079.83	-5.76243
2080.21	-5.7023
2080.6	-5.54626
2080.98	-5.40059
2081.37	-5.43541
2081.75	-5.49027
2082.14	-5.48727
2082.52	-5.50692
2082.91	-5.46958
2083.29	-5.3206
2083.68	-5.36318
2084.06	-4.99814
2084.45	-4.83912
2084.83	-4.75639
2085.21	-4.57593
2085.6	-4.50322
2085.98	-4.50804
2086.37	-4.58343
2086.75	-4.67146
2087.14	-4.89603
2087.52	-5.08383
2087.9	-5.32077
2088.29	-5.713
2088.67	-6.10419
2089.06	-6.54023
2089.44	-6.75739
2089.82	-6.79799
2090.21	-6.78302
2090.59	-6.86505
2090.98	-6.82265
2091.36	-6.88607
2091.74	-6.8401
2092.13	-6.92783
2092.51	-7.12087
2092.89	-7.22265
2093.28	-7.18523
2093.66	-7.09552
2094.04	-6.93135
2094.43	-6.76695
2094.81	-6.59602
2095.19	-6.33524
2095.58	-6.06744
2095.96	-5.74917
2096.34	-5.53573
2096.73	-5.34635
2097.11	-5.0827
2097.49	-5.00554
2097.87	-4.99648
2098.26	-5.08627
2098.64	-5.20172
2099.02	-5.34167
2099.41	-5.54887
2099.79	-5.67017
2100.17	-5.70663
2100.55	-5.79001
2100.94	-5.80114
2101.32	-5.83928
2101.7	-5.7582
2102.08	-5.74764
2102.47	-5.58003
2102.85	-5.48195
2103.23	-5.34441
2103.61	-5.1895
2103.99	-5.03913
2104.38	-4.86097
2104.76	-4.78253
2105.14	-4.82687
2105.52	-5.13158
2105.9	-5.46085
2106.29	-5.6584
2106.67	-5.77844
2107.05	-5.73155
2107.43	-5.88855
2107.81	-6.05809
2108.19	-6.13437
2108.58	-6.13257
2108.96	-6.17538
2109.34	-6.1249
2109.72	-5.99179
2110.1	-5.65502
2110.48	-5.13786
2110.86	-5.0595
2111.25	-4.95023
2111.63	-4.93461
2112.01	-4.89727
2112.39	-4.97071
2112.77	-4.97137
2113.15	-5.07591
2113.53	-5.22082
2113.91	-5.2971
2114.29	-5.43843
2114.67	-5.57988
2115.05	-5.83259
2115.43	-5.95142
2115.82	-5.93315
2116.2	-5.88358
2116.58	-5.86726
2116.96	-5.83746
2117.34	-5.74741
2117.72	-5.56964
2118.1	-5.43866
2118.48	-5.37848
2118.86	-5.32175
2119.24	-5.30534
2119.62	-5.28274
2120	-5.19282
2120.38	-5.12769
2120.76	-5.06146
2121.14	-5.00151
2121.52	-5.32257
2121.9	-5.42125
2122.28	-5.53443
2122.66	-5.59136
2123.04	-5.58971
2123.42	-5.73478
2123.8	-5.91635
2124.18	-6.0938
2124.55	-6.18862
2124.94	-6.15914
2125.31	-6.11971
2125.69	-6.22937
2126.07	-6.21292
2126.45	-6.1411
2126.83	-5.99108
2127.21	-5.87925
2127.59	-5.72476
2127.97	-5.45569
2128.35	-5.04757
2128.73	-4.82366
2129.11	-4.87133
2129.48	-5.07652
2129.86	-5.35718
2130.24	-5.66731
2130.62	-5.91517
2131	-5.96737
2131.38	-6.03943
2131.76	-6.06739
2132.14	-6.10114
2132.51	-6.15107
2132.89	-6.13003
2133.27	-5.94979
2133.65	-5.79344
2134.03	-5.70823
2134.41	-5.59028
2134.78	-5.61278
2135.16	-5.64683
2135.54	-5.66208
2135.92	-5.53676
2136.3	-5.71816
2136.67	-5.8951
2137.05	-5.90421
2137.43	-5.9216
2137.81	-5.87884
2138.19	-5.94216
2138.56	-6.07099
2138.94	-6.23267
2139.32	-6.47731
2139.7	-6.81525
2140.07	-6.71912
2140.45	-6.53315
2140.83	-6.38963
2141.21	-6.15678
2141.58	-5.92107
2141.96	-5.70208
2142.34	-5.40028
2142.71	-5.32876
2143.09	-5.33031
2143.47	-5.3596
2143.85	-5.39553
2144.22	-5.48063
2144.6	-5.47183
2144.98	-5.51944
2145.35	-5.4904
2145.73	-5.40319
2146.11	-5.35453
2146.48	-5.45989
2146.86	-5.55259
2147.24	-5.62498
2147.61	-5.72156
2147.99	-6.01486
2148.37	-6.24766
2148.74	-6.35627
2149.12	-6.33368
2149.5	-6.25924
2149.87	-6.24915
2150.25	-6.17504
2150.62	-6.5385
2151	-6.69899
2151.38	-6.69837
2151.75	-6.57862
2152.13	-6.49294
2152.5	-6.19754
2152.88	-6.06749
2153.26	-5.93366
2153.63	-5.86973
2154.01	-5.87691
2154.38	-6.49362
2154.76	-7.16971
2155.13	-8.07402
2155.51	-6.61276
2155.89	-5.95701
2156.26	-5.99178
2156.64	-5.97767
2157.01	-6.13938
2157.39	-6.4847
2157.76	-6.64307
2158.14	-6.54086
2158.51	-6.56566
2158.89	-6.26777
2159.26	-5.75481
2159.64	-5.54796
2160.01	-5.38477
2160.39	-5.29723
2160.76	-5.23406
2161.14	-5.18487
2161.51	-5.17772
2161.89	-5.26079
2162.26	-5.35087
2162.64	-5.50896
2163.01	-5.67635
2163.39	-5.83355
2163.76	-5.90156
2164.13	-5.89693
2164.51	-5.86373
2164.88	-5.65057
2165.26	-5.51354
2165.63	-5.56646
2166.01	-5.55959
2166.38	-5.62656
2166.75	-5.65561
2167.13	-5.89052
2167.5	-6.2625
2167.88	-6.44761
2168.25	-6.45161
2168.62	-6.44551
2169	-6.31322
2169.37	-6.2964
2169.75	-6.34678
2170.12	-6.19266
2170.49	-5.90339
2170.87	-5.71225
2171.24	-5.44283
2171.61	-5.57523
2171.99	-5.62095
2172.36	-5.7148
2172.73	-5.72907
2173.11	-5.90359
2173.48	-5.96802
2173.85	-6.21793
2174.23	-6.63166
2174.6	-6.96522
2174.97	-7.18623
2175.35	-7.65782
2175.72	-7.70114
2176.09	-7.65068
2176.46	-7.4221
2176.84	-6.92722
2177.21	-6.44364
2177.58	-6.12385
2177.95	-5.56012
2178.33	-5.2644
2178.7	-5.12184
2179.07	-4.97427
2179.45	-5.07568
2179.82	-5.22461
2180.19	-5.35475
2180.56	-5.43563
2180.94	-5.60946
2181.31	-5.70614
2181.68	-5.80992
2182.05	-5.85943
2182.42	-5.80496
2182.8	-5.70137
2183.17	-5.44004
2183.54	-5.25323
2183.91	-5.27911
2184.28	-5.46943
2184.66	-5.75306
2185.03	-5.89757
2185.4	-5.9707
2185.77	-6.02966
2186.14	-6.03295
2186.51	-6.04025
2186.88	-5.92014
2187.26	-5.97008
2187.63	-5.97821
2188	-6.08442
2188.37	-6.15761
2188.74	-6.31697
2189.11	-6.21253
2189.48	-6.03545
2189.86	-6.01792
2190.23	-5.93804
2190.6	-5.80344
2190.97	-5.99596
2191.34	-6.47064
2191.71	-6.82045
2192.08	-7.07969
2192.45	-7.27605
2192.82	-6.86962
2193.19	-6.44925
2193.56	-6.35497
2193.93	-6.32564
2194.31	-6.31724
2194.68	-6.54815
2195.05	-6.43667
2195.42	-6.52664
2195.79	-6.61857
2196.16	-7.2052
2196.53	-6.84926
2196.9	-6.50201
2197.27	-6.2335
2197.64	-6.28111
2198.01	-6.32248
2198.38	-6.33544
2198.75	-6.34444
2199.12	-6.33643
2199.49	-6.19962
2199.86	-5.97127
2200.23	-5.94548
2200.6	-5.9774
2200.97	-5.99873
2201.34	-5.95407
2201.71	-5.9004
2202.08	-5.80048
2202.45	-5.67394
2202.82	-5.64339
2203.18	-5.6101
2203.55	-5.59656
2203.92	-5.64907
2204.29	-5.75349
2204.66	-5.69511
2205.03	-5.73318
2205.4	-5.64034
2205.77	-5.64864
2206.14	-5.74903
2206.51	-5.90276
2206.88	-5.98249
2207.25	-5.89669
2207.61	-5.58963
2207.98	-5.85712
2208.35	-6.09288
2208.72	-6.15925
2209.09	-6.02815
2209.46	-5.90328
2209.83	-5.8365
2210.2	-5.7917
2210.56	-5.76649
2210.93	-5.82625
2211.3	-5.92858
2211.67	-6.03157
2212.04	-6.09502
2212.4	-6.25096
2212.77	-6.39352
2213.14	-6.43835
2213.51	-6.42474
2213.88	-6.31205
2214.25	-6.21006
2214.61	-6.16872
2214.98	-6.06768
2215.35	-5.91223
2215.72	-5.84021
2216.09	-5.81452
2216.45	-5.77635
2216.82	-5.7216
2217.19	-5.59302
2217.56	-5.39772
2217.92	-5.0615
2218.29	-4.89806
2218.66	-4.91734
2219.03	-4.9893
2219.39	-5.10979
2219.76	-5.29097
2220.13	-5.53652
2220.33	-5.66908
2220.71	-6.01318
2221.09	-6.23055
2221.47	-6.40488
2221.85	-6.47924
2222.23	-6.61604
2222.61	-6.74777
2222.99	-6.83827
2223.37	-6.73413
2223.75	-6.65411
2224.13	-6.52079
2224.51	-6.356
2224.89	-6.24809
2225.27	-6.1173
2225.65	-6.02722
2226.04	-5.94116
2226.42	-5.6613
2226.8	-5.48699
2227.18	-5.34388
2227.56	-5.26788
2227.94	-5.25132
2228.32	-5.30682
2228.7	-5.34995
2229.08	-5.60817
2229.46	-6.04587
2229.84	-6.60566
2230.22	-6.39996
2230.6	-6.21454
2230.98	-6.10057
2231.36	-6.30384
2231.73	-6.52079
2232.11	-6.77616
2232.49	-6.81302
2232.87	-6.68272
2233.25	-6.63578
2233.63	-6.5689
2234.01	-6.49294
2234.39	-6.25048
2234.77	-6.05552
2235.15	-5.86217
2235.53	-5.84078
2235.91	-5.79143
2236.29	-5.75439
2236.66	-5.80584
2237.04	-5.93659
2237.42	-6.00442
2237.8	-6.03819
2238.18	-6.09021
2238.56	-6.33574
2238.94	-6.54184
2239.32	-6.45725
2239.7	-6.25082
2240.07	-6.2356
2240.45	-6.31758
2240.83	-6.18731
2241.21	-6.13615
2241.59	-6.15456
2241.97	-6.10251
2242.34	-6.07451
2242.72	-6.05984
2243.1	-5.90163
2243.48	-5.3908
2243.86	-5.06984
2244.24	-5.25012
2244.61	-5.2992
2244.99	-5.15242
2245.37	-5.15979
2245.75	-6.39878
2246.13	-7.33151
2246.5	-6.96678
2246.88	-6.86398
2247.26	-6.90215
2247.64	-6.82013
2248.01	-7.02356
2248.39	-7.12086
2248.77	-7.06977
2249.15	-6.86388
2249.52	-6.63619
2249.9	-6.35314
2250.28	-6.3157
2250.66	-6.25156
2251.03	-6.1904
2251.41	-6.16334
2251.79	-6.13487
2252.17	-6.09586
2252.54	-5.97085
2252.92	-5.82795
2253.3	-5.58105
2253.67	-5.42369
2254.05	-5.24168
2254.43	-5.28562
2254.8	-5.59226
2255.18	-5.81073
2255.56	-5.86587
2255.93	-5.81756
2256.31	-5.74035
2256.69	-5.54973
2257.06	-5.22102
2257.44	-5.05966
2257.82	-4.9714
2258.19	-4.94117
2258.57	-5.07856
2258.95	-5.10628
2259.32	-5.09826
2259.7	-5.09313
2260.07	-5.15102
2260.45	-5.17934
2260.83	-5.24263
2261.2	-5.34474
2261.58	-5.49237
2261.95	-5.60635
2262.33	-5.67276
2262.71	-5.81818
2263.08	-5.96431
2263.46	-6.13454
2263.83	-6.2951
2264.21	-6.19549
2264.58	-6.02523
2264.96	-5.8111
2265.33	-5.59736
2265.71	-5.38444
2266.09	-5.04831
2266.46	-4.70743
2266.84	-4.54256
2267.21	-4.63929
2267.59	-4.72217
2267.96	-4.82022
2268.34	-4.78725
2268.71	-4.82083
2269.09	-4.83913
2269.46	-4.88034
2269.84	-4.90471
2270.21	-4.97345
2270.59	-5.06485
2270.96	-5.15253
2271.34	-5.30017
2271.71	-5.43285
2272.09	-5.63215
2272.46	-5.99092
2272.84	-6.37592
2273.21	-6.75616
2273.59	-6.99835
2273.96	-7.06866
2274.33	-6.51914
2274.71	-5.83285
2275.08	-5.45555
2275.46	-5.31827
2275.83	-5.15877
2276.21	-4.99096
2276.58	-4.79012
2276.95	-4.57187
2277.33	-4.31154
2277.7	-4.06914
2278.08	-4.14774
2278.45	-4.39384
2278.82	-4.49483
2279.2	-4.77675
2279.57	-5.25121
2279.94	-5.9504
2280.32	-6.60255
2280.69	-7.07646
2281.07	-7.22439
2281.44	-7.14266
2281.81	-5.87491
2282.19	-5.45477
2282.56	-5.24917
2282.93	-5.07591
2283.31	-5.18735
2283.68	-5.62026
2284.05	-5.69022
2284.43	-5.76843
2284.8	-5.75348
2285.17	-5.58196
2285.54	-5.22576
2285.92	-4.74932
2286.29	-3.80172
2286.66	-3.5911
2287.04	-3.44695
2287.41	-3.47413
2287.78	-3.74125
2288.15	-4.06938
2288.53	-4.32732
2288.9	-4.46098
2289.27	-4.55516
2289.64	-4.59144
2290.02	-4.58564
2290.39	-4.64642
2290.76	-4.82186
2291.13	-4.74984
2291.51	-4.73647
2291.88	-4.84924
2292.25	-4.90794
2292.62	-4.84206
2293	-4.73387
2293.37	-4.5992
2293.74	-4.38052
2294.11	-4.0968
2294.48	-3.74147
2294.86	-3.3825
2295.23	-2.97757
2295.6	-2.76799
2295.97	-3.0063
2296.34	-3.38335
2296.71	-3.80832
2297.09	-4.89055
2297.46	-5.55494
2297.83	-5.03976
2298.2	-5.34907
2298.57	-4.83389
2298.94	-4.58636
2299.31	-4.42925
2299.69	-4.17529
2300.06	-3.86788
2300.43	-3.73103
2300.8	-3.77876
2301.17	-3.94821
2301.54	-4.03748
2301.91	-4.09354
2302.28	-4.06672
2302.65	-4.15483
2303.03	-4.25984
2303.4	-4.32519
2303.77	-4.39294
2304.14	-4.33672
2304.51	-4.2658
2304.88	-4.18639
2305.25	-4.09815
2305.62	-3.81214
2305.99	-3.60908
2306.36	-3.43073
2306.73	-3.57362
2307.1	-3.85172
2307.47	-3.96003
2307.84	-4.10811
2308.21	-4.12255
2308.58	-4.21594
2308.95	-4.28328
2309.32	-4.35122
2309.69	-4.46768
2310.06	-4.56539
2310.43	-4.7467
2310.8	-4.91837
2311.17	-5.00155
2311.54	-4.99987
2311.91	-4.9295
2312.28	-4.85708
2312.65	-4.57198
2313.02	-4.23752
2313.39	-3.76912
2313.76	-3.30025
2314.13	-3.15431
2314.5	-3.13452
2314.87	-3.11378
2315.24	-3.49843
2315.61	-5.32464
2315.98	-6.10788
2316.35	-4.91986
2316.72	-4.26328
2317.09	-4.33589
2317.45	-5.39139
2317.82	-5.34938
2318.19	-5.25499
2318.56	-5.09268
2318.93	-5.0375
2319.3	-4.78594
2319.67	-5.34917
2320.04	-4.60704
2320.41	-4.34088
2320.77	-3.97501
2321.14	-3.60139
2321.51	-3.21498
2321.88	-3.00647
2322.25	-3.04503
2322.62	-3.08501
2322.99	-3.13616
2323.35	-3.23169
2323.72	-3.23408
2324.09	-3.22021
2324.46	-3.28927
2324.83	-3.50324
2325.2	-3.76931
2325.56	-3.90531
2325.93	-4.14889
2326.3	-4.05551
2326.67	-3.45771
2327.04	-2.47549
2327.4	-1.44157
2327.77	-0.542828
2328.14	0.246505
2328.51	0.579009
2328.87	0.640303
2329.24	0.608259
2329.61	0.466197
2329.98	0.324721
2330.35	0.0308028
2330.71	-0.636197
2331.08	-1.31152
2331.45	-1.96753
2331.81	-2.61739
2332.18	-3.22965
2332.55	-3.81083
2332.92	-4.31216
2333.28	-4.24169
2333.65	-4.56347
2334.02	-4.81648
2334.38	-4.82118
2334.75	-4.87631
2335.12	-4.66607
2335.49	-4.46388
2335.85	-4.21203
2336.22	-3.83483
2336.59	-3.58057
2336.95	-3.37629
2337.32	-3.31219
2337.69	-3.3115
2338.05	-3.33311
2338.42	-3.4356
2338.79	-3.45617
2339.15	-3.42211
2339.52	-3.37516
2339.88	-3.41798
2340.25	-3.46702
2340.62	-3.6462
2340.98	-3.90196
2341.35	-4.19225
2341.72	-4.38826
2342.08	-4.53567
2342.45	-4.47821
2342.81	-4.45359
2343.18	-4.29542
2343.55	-4.08469
2343.91	-3.98929
2344.28	-3.94762
2344.64	-3.83604
2345.01	-3.96785
2345.37	-4.08033
2345.74	-4.19589
2346.1	-4.24132
2346.47	-4.28274
2346.84	-4.2097
2347.2	-4.06768
2347.57	-3.94901
2347.93	-3.82442
2348.3	-3.67805
2348.66	-3.54419
2349.03	-3.55116
2349.39	-3.40767
2349.76	-3.22349
2350.12	-3.06901
2350.49	-2.91687
2350.85	-2.89964
2351.22	-2.93435
2351.58	-3.05573
2351.95	-3.26878
2352.31	-3.48274
2352.68	-3.6125
2353.04	-3.65718
2353.41	-3.62022
2353.77	-3.60892
2354.14	-3.29661
2354.5	-3.1743
2354.87	-3.06057
2355.23	-2.89686
2355.59	-2.63954
2355.96	-2.51153
2356.32	-2.52098
2356.69	-2.58996
2357.05	-2.71902
2357.42	-2.88016
2357.78	-3.07381
2358.14	-3.2652
2358.51	-3.38539
2358.87	-3.46822
2359.24	-3.37646
2359.6	-3.42914
2359.96	-3.48217
2360.33	-3.4312
2360.69	-3.30038
2361.05	-3.14232
2361.42	-2.96356
2361.78	-3.01881
2362.14	-3.03236
2362.51	-3.01454
2362.87	-2.99333
2363.24	-2.98742
2363.6	-2.93626
2363.96	-2.91226
2364.33	-2.79752
2364.69	-2.61757
2365.05	-2.41793
2365.42	-2.25986
2365.78	-2.25242
2366.14	-2.24297
2366.5	-2.50762
2366.87	-2.84738
2367.23	-2.94811
2367.59	-2.97239
2367.96	-2.95408
2368.32	-3.06447
2368.68	-3.15628
2369.04	-3.25166
2369.41	-3.30719
2369.77	-3.2888
2370.13	-3.11793
2370.49	-2.99076
2370.86	-2.83492
2371.22	-2.94818
2371.58	-3.2105
2371.94	-3.45428
2372.31	-3.63528
2372.67	-3.84375
2373.03	-3.95491
2373.39	-4.07901
2373.76	-4.0202
2374.12	-4.1036
2374.48	-4.22448
2374.84	-4.2536
2375.2	-4.32227
2375.56	-4.55838
2375.93	-4.89959
2376.29	-5.15959
2376.65	-5.14979
2377.01	-5.03299
2377.37	-4.73849
2377.74	-4.41741
2378.1	-4.42101
2378.46	-4.4029
2378.82	-4.38505
2379.18	-4.20895
2379.54	-3.98285
2379.9	-3.69333
2380.27	-3.35943
2380.63	-3.20835
2380.99	-3.09032
2381.35	-2.91301
2381.71	-2.77461
2382.07	-2.60672
2382.43	-2.58845
2382.79	-2.63134
2383.15	-2.77138
2383.52	-2.87729
2383.88	-2.94012
2384.24	-2.97717
2384.6	-2.88383
2384.96	-2.85403
2385.32	-2.75538
2385.68	-2.80808
2386.04	-2.93489
2386.4	-3.42635
2386.76	-3.61861
2387.12	-3.81583
2387.48	-3.91317
2387.84	-4.01696
2388.2	-4.1017
2388.56	-4.05357
2388.92	-4.08098
2389.28	-4.21061
2389.64	-4.39749
2390	-4.60344
2390.36	-4.68814
2390.72	-4.17834
2391.08	-3.76987
2391.44	-3.44414
2391.8	-3.22143
2392.16	-3.00061
2392.52	-2.81834
2392.88	-2.59734
2393.24	-2.46313
2393.6	-2.39951
2393.96	-2.41912
2394.32	-2.93472
2394.68	-2.94618
2395.04	-3.21077
2395.4	-3.44965
2395.76	-3.78259
2396.12	-4.10366
2396.48	-4.23804
2396.84	-4.20642
2397.2	-3.89788
2397.56	-3.56908
2397.91	-3.44017
2398.27	-3.21102
2398.63	-2.98465
2398.99	-2.61468
2399.35	-2.52068
2399.71	-2.59431
2400.07	-2.71683
2400.43	-2.72939
2400.79	-2.85098
2401.14	-3.10746
2401.5	-3.30251
2401.86	-3.58041
2402.22	-3.68145
2402.58	-3.79522
2402.94	-3.63465
2403.3	-3.65176
2403.65	-3.62539
2404.01	-3.57426
2404.37	-3.429
2404.73	-3.61165
2405.09	-3.72237
2405.44	-3.7944
2405.8	-3.84137
2406.16	-3.83633
2406.52	-3.82542
2406.88	-3.86881
2407.23	-3.90337
2407.59	-4.09958
2407.95	-4.02296
2408.31	-3.94951
2408.67	-4.00065
2409.02	-3.98242
2409.38	-3.97728
2409.74	-4.24309
2410.1	-4.64772
2410.45	-4.6348
2410.81	-4.44411
2411.17	-4.09098
2411.53	-3.6087
2411.88	-3.03391
2412.24	-2.52484
2412.6	-2.08738
2412.96	-1.73165
2413.31	-1.49377
2413.67	-1.40675
2414.03	-1.41535
2414.38	-1.53986
2414.74	-1.45621
2415.1	-1.66507
2415.45	-1.99043
2415.81	-2.36314
2416.17	-3.21619
2416.52	-3.41121
2416.88	-3.4119
2417.24	-3.32139
2417.59	-3.22845
2417.95	-3.04946
2418.31	-2.79622
2418.66	-2.44682
2419.02	-2.32682
2419.38	-2.19242
2419.73	-2.39955
2420.09	-2.50203
2420.45	-2.57931
2420.8	-2.58913
2421.16	-2.61435
2421.51	-2.6563
2421.87	-2.60622
2422.23	-2.47652
2422.58	-2.56899
2422.94	-2.6349
2423.29	-2.64451
2423.65	-2.49535
2424.01	-2.45923
2424.36	-2.55799
2424.72	-3.64574
2425.07	-2.45486
2425.43	-2.18772
2425.78	-2.00592
2426.14	-1.76704
2426.5	-1.55734
2426.85	-1.55119
2427.21	-1.56647
2427.56	-1.58937
2427.92	-1.64673
2428.27	-1.66804
2428.63	-1.7423
2428.98	-1.82859
2429.34	-1.97204
2429.69	-2.12466
2430.05	-2.09924
2430.4	-2.12297
2430.76	-1.94949
2431.11	-2.04089
2431.47	-2.12717
2431.82	-2.19869
2432.18	-2.3242
2432.53	-2.30678
2432.89	-2.31049
2433.24	-2.28631
2433.6	-2.21221
2433.95	-2.10551
2434.3	-2.1191
2434.66	-2.04023
2435.01	-1.88193
2435.37	-1.73207
2435.72	-1.56801
2436.08	-1.36552
2436.43	-1.20401
2436.79	-1.05807
2437.14	-0.887855
2437.49	-0.685354
2437.85	-0.649976
2438.2	-0.701028
2438.55	-0.750533
2438.91	-0.865244
2439.26	-1.04179
2439.62	-1.1377
2439.97	-1.08844
2440.32	-0.997786
2440.68	-0.871588
2441.03	-0.744935
2441.38	-0.628317
2441.74	-0.498645
2442.09	-0.28984
2442.45	-0.0402607
2442.8	0.193057
2443.15	0.398999
2443.51	0.560418
2443.86	0.590875
2444.21	0.415751
2444.57	0.166458
2444.92	-0.0344617
2445.27	-0.129335
2445.63	-0.295379
2445.98	-0.266363
2446.33	-0.0450999
2446.68	0.375367
2447.04	0.847626
2447.39	1.29294
2447.74	1.66774
2448.1	1.91101
2448.45	2.02311
2448.8	2.01775
2449.15	1.92118
2449.51	1.70156
2449.86	1.73024
2450.21	1.8263
2450.56	1.92013
2450.92	2.23832
2451.27	2.30489
2451.62	2.18336
2451.97	2.02607
2452.32	1.94883
2452.68	2.01668
2453.03	1.99306
2453.38	1.97656
2453.73	1.71672
2454.08	1.51892
2454.44	1.36728
2454.79	1.26686
2455.14	1.0158
2455.49	0.757271
2455.84	0.501978
2456.2	0.30242
2456.55	0.0794399
2456.9	-0.0158627
2457.25	-0.0444701
2457.6	-0.0523584
2457.95	-0.0879322
2458.31	-0.112788
2458.66	-0.0780438
2459.01	-0.115201
2459.36	-0.146192
2459.71	-0.175647
2460.06	-0.213885
2460.41	-0.145442
2460.76	-0.081163
2461.11	-0.0512233
2461.47	0.139642
2461.82	0.305125
2462.17	0.472856
2462.52	0.615621
2462.87	0.501972
2463.22	0.433031
2463.57	0.163245
2463.92	0.112356
2464.27	0.141552
2464.62	0.394419
2464.97	0.521403
2465.32	0.592887
2465.68	0.520854
2466.03	0.405975
2466.38	0.392
2466.73	0.383693
2467.08	0.269006
2467.43	-0.191877
2467.78	-0.31686
2468.13	-0.653451
2468.48	-0.776581
2468.83	-0.83229
2469.18	-0.8142
2469.53	-0.683446
2469.88	-0.631859
2470.23	-0.8239
2470.58	-1.06294
2470.93	-1.36904
2471.28	-1.63768
2471.63	-1.82427
2471.98	-1.7497
2472.33	-1.81696
2472.68	-1.8221
2473.03	-1.98049
2473.38	-2.05914
2473.72	-2.0753
2474.07	-2.16616
2474.42	-2.29407
2474.77	-2.46971
2475.12	-2.68153
2475.47	-2.83706
2475.82	-2.96448
2476.17	-2.98455
2476.52	-2.94041
2476.87	-2.85921
2477.22	-2.83188
2477.57	-2.80233
2477.92	-2.30121
2478.26	-2.04537
2478.61	-1.79437
2478.96	-1.40214
2479.31	-1.0644
2479.66	-1.13545
2480.01	-1.3032
2480.36	-1.45521
2480.7	-1.65163
2481.05	-1.61942
2481.4	-1.53072
2481.75	-1.55759
2482.1	-1.48041
2482.45	-1.51339
2482.8	-1.62549
2483.14	-1.84265
2483.49	-1.92717
2483.84	-1.86641
2484.19	-1.79158
2484.54	-1.82699
2484.88	-1.94308
2485.23	-1.96982
2485.58	-1.9211
2485.93	-1.83138
2486.28	-1.76094
2486.63	-1.82923
2486.97	-1.94261
2487.32	-2.02724
2487.67	-2.09927
2488.02	-2.14512
2488.36	-2.16123
2488.71	-2.15543
2489.06	-2.08167
2489.41	-1.99098
2489.75	-1.90315
2490.1	-1.88613
2490.45	-1.80521
2490.8	-1.64254
2491.14	-1.54211
2491.49	-1.57314
2491.84	-1.60249
2492.18	-1.55374
2492.53	-1.51185
2492.88	-1.49703
2493.23	-1.50344
2493.57	-1.55304
2493.92	-1.62038
2494.27	-1.67879
2494.61	-1.69951
2494.96	-1.87582
2495.31	-2.36964
2495.65	-2.93385
2496	-3.49015
2496.35	-3.98771
2496.69	-4.23185
2497.04	-4.51983
2497.39	-4.72444
2497.73	-4.8357
2498.08	-4.85331
2498.42	-4.82879
2498.77	-4.70437
2499.12	-3.89931
2499.46	-3.51332
2499.81	-3.17408
2500.16	-2.80113
2500.5	-2.53681
2500.85	-2.41708
2501.19	-2.38516
2501.54	-2.45959
2501.89	-2.65766
2502.23	-2.78131
2502.58	-2.94607
2502.92	-3.13961
2503.27	-2.95072
2503.61	-3.09102
2503.96	-3.24964
2504.31	-3.51748
2504.65	-3.60275
2505	-3.56182
2505.34	-3.45285
2505.69	-3.48872
2506.03	-3.45507
2506.38	-3.38202
2506.72	-3.31445
2507.07	-3.19374
2507.41	-3.04888
2507.76	-2.89162
2508.1	-2.64795
2508.45	-2.60167
2508.79	-2.54494
2509.14	-2.58784
2509.48	-2.65544
2509.83	-2.92161
2510.17	-3.34095
2510.52	-3.85467
2510.86	-4.00372
2511.21	-4.04355
2511.55	-3.89759
2511.9	-3.7455
2512.24	-3.51816
2512.58	-3.27139
2512.93	-3.14994
2513.27	-3.06489
2513.62	-2.93332
2513.96	-2.81156
2514.31	-2.67285
2514.65	-2.74189
2515	-2.83891
2515.34	-3.05808
2515.68	-3.05948
2516.03	-2.94823
2516.37	-2.97802
2516.72	-3.24793
2517.06	-3.53674
2517.4	-3.82432
2517.75	-4.11249
2518.09	-4.3849
2518.43	-4.52709
2518.78	-4.60812
2519.12	-4.56237
2519.47	-4.44291
2519.81	-4.33747
2520.15	-4.0831
2520.5	-3.90197
2520.84	-3.80807
2521.18	-3.72853
2521.53	-3.51856
2521.87	-3.37301
2522.21	-3.23398
2522.56	-3.0249
2522.9	-3.03493
2523.24	-3.07482
2523.59	-3.14428
2523.93	-3.13209
2524.27	-3.19587
2524.62	-3.18685
2524.96	-3.23571
2525.3	-3.15982
2525.64	-3.08641
2525.99	-3.05203
2526.33	-3.25981
2526.67	-3.41189
2527.01	-3.57697
2527.36	-3.78571
2527.7	-3.72196
2528.04	-3.70015
2528.38	-3.66079
2528.73	-3.62463
2529.07	-3.58336
2529.41	-3.49758
2529.75	-3.40576
2530.1	-3.29418
2530.44	-3.1787
2530.78	-3.03124
2531.12	-2.93772
2531.47	-2.96839
2531.81	-2.98697
2532.15	-2.92694
2532.49	-2.87078
2532.83	-2.76187
2533.17	-2.66161
2533.52	-2.62031
2533.86	-2.62671
2534.2	-2.74824
2534.54	-2.887
2534.88	-3.16862
2535.22	-3.22569
2535.57	-3.24605
2535.91	-2.85026
2536.25	-2.62477
2536.59	-2.11089
2536.93	-2.31883
2537.27	-2.71591
2537.61	-3.14479
2537.96	-3.04164
2538.3	-2.97018
2538.64	-2.98396
2538.98	-3.06383
2539.32	-3.14158
2539.66	-3.34258
2540	-3.34909
2540.34	-3.19828
2540.68	-3.03124
2541.03	-2.87276
2541.37	-2.68107
2541.71	-2.43178
2542.05	-2.16165
2542.39	-2.15605
2542.73	-2.15722
2543.07	-2.24505
2543.41	-2.15864
2543.75	-1.9712
2544.09	-1.85185
2544.43	-1.80875
2544.77	-1.79084
2545.11	-1.79811
2545.45	-1.79927
2545.79	-1.71985
2546.13	-1.73025
2546.47	-1.7995
2546.81	-1.88634
2547.15	-1.92977
2547.49	-1.9298
2547.83	-1.99303
2548.17	-2.16081
2548.51	-2.37101
2548.85	-2.58101
2549.19	-2.70475
2549.53	-2.79803
2549.87	-2.78404
2550.21	-2.68473
2550.55	-2.44184
2550.89	-2.03132
2551.23	-1.5234
2551.57	-0.843815
2551.91	-0.709027
2552.25	-0.726567
2552.26	-0.716137
2552.62	-0.753569
2552.97	-0.809712
2553.32	-0.845438
2553.68	-0.788016
2554.03	-0.700529
2554.38	-0.696109
2554.73	-0.61871
2555.09	-0.680611
2555.44	-1.10937
2555.79	-1.40158
2556.14	-1.65395
2556.49	-1.71039
2556.85	-1.58091
2557.2	-1.45228
2557.55	-1.45676
2557.9	-1.80296
2558.26	-2.39714
2558.61	-2.85962
2558.96	-3.23164
2559.31	-3.5078
2559.66	-3.65999
2560.02	-3.43503
2560.37	-2.66567
2560.72	-2.11398
2561.07	-2.68372
2561.42	-1.81132
2561.77	-1.32113
2562.13	-0.264265
2562.48	0.339106
2562.83	0.966113
2563.18	1.27222
2563.53	1.28417
2563.88	1.09061
2564.23	0.582161
2564.59	-0.148315
2564.94	-0.919286
2565.29	-1.67437
2565.64	-2.82872
2565.99	-3.73129
2566.34	-2.4087
2566.69	-1.88859
2567.04	-0.922221
2567.4	-0.246591
2567.75	0.255614
2568.1	0.379865
2568.45	0.65039
2568.8	1.10875
2569.15	1.54065
2569.5	2.05186
2569.85	2.34677
2570.2	1.94174
2570.55	1.62567
2570.9	1.55454
2571.25	1.64071
2571.6	2.18727
2571.95	2.51458
2572.3	2.70512
2572.66	2.76453
2573.01	2.81162
2573.36	2.90067
2573.71	2.83254
2574.06	2.83505
2574.41	2.71689
2574.76	2.64549
2575.11	2.46328
2575.46	2.41454
2575.81	2.34897
2576.16	2.41705
2576.51	2.38442
2576.86	2.45915
2577.21	2.68835
2577.56	2.94329
2577.9	3.22607
2578.25	3.54302
2578.6	3.86803
2578.95	4.1996
2579.3	4.55359
2579.65	4.77607
2580	5.07327
2580.35	5.18642
2580.7	5.29455
2581.05	5.31559
2581.4	5.29149
2581.75	5.24036
2582.1	5.54928
2582.45	6.10798
2582.8	6.53331
2583.15	6.71736
2583.49	6.8957
2583.84	7.17398
2584.19	7.44319
2584.54	7.85253
2584.89	8.31494
2585.24	8.65242
2585.59	8.95117
2585.94	9.28659
2586.28	9.56203
2586.63	9.77595
2586.98	9.96389
2587.33	10.0936
2587.68	10.0499
2588.03	10.1996
2588.38	10.3085
2588.72	10.6642
2589.07	10.9478
2589.42	11.2731
2589.77	11.614
2590.12	11.9257
2590.47	12.1975
2590.81	12.4978
2591.16	12.7383
2591.51	13.0679
2591.86	13.4465
2592.21	13.85
2592.55	14.1607
2592.9	14.4405
2593.25	14.604
2593.6	14.9103
2593.94	15.172
2594.29	15.6857
2594.64	16.2538
2594.99	16.9331
2595.33	17.5457
2595.68	18.6348
2596.03	19.7861
2596.38	21.0524
2596.73	22.3715
2597.07	23.5084
2597.42	24.6772
2597.77	25.5363
2598.11	26.4552
2598.46	27.3433
2598.81	28.0506
2599.16	28.829
2599.5	29.1221
2599.85	29.5261
2600.2	30.0422
2600.54	30.91
2600.89	31.7411
2601.24	32.988
2601.58	34.2622
2601.93	35.4394
2602.28	36.6252
2602.62	37.5374
2602.97	38.5278
2603.32	39.6935
2603.66	40.737
2604.01	41.7385
2604.36	42.641
2604.7	43.9429
2605.05	45.1353
2605.4	46.4074
2605.74	47.7275
2606.09	49.7365
2606.43	52.3067
2606.78	54.0313
2607.13	55.5872
2607.47	57.4788
2607.82	59.2317
2608.16	61.1109
2608.51	62.7916
2608.86	64.4456
2609.2	66.2371
2609.55	67.6944
2609.89	69.4297
2610.24	71.1779
2610.59	73.1738
2610.93	75.5444
2611.28	77.7757
2611.62	80.3061
2611.97	82.9116
2612.31	85.1637
2612.66	87.2812
2613	89.6529
2613.35	92.0817
2613.7	94.3426
2614.04	96.6054
2614.39	98.8406
2614.73	100.976
2615.08	103.53
2615.42	105.934
2615.77	108.078
2616.11	110.221
2616.46	112.626
2616.8	115.109
2617.15	117.234
2617.49	119.322
2617.84	121.218
2618.18	122.636
2618.52	123.415
2618.87	123.503
2619.21	124.487
2619.56	125.699
2619.9	127.883
2620.25	129.25
2620.59	130.493
2620.94	131.578
2621.28	132.642
2621.63	133.785
2621.97	134.691
2622.31	135.069
2622.66	134.93
2623	135.39
2623.35	135.683
2623.69	135.257
2624.03	135.225
2624.38	134.654
2624.72	134.103
2625.07	133.577
2625.41	132.85
2625.75	131.966
2626.1	131.11
2626.44	130.074
2626.78	128.905
2627.13	127.637
2627.47	125.988
2627.82	124.019
2628.16	121.529
2628.5	119.154
2628.85	117.065
2629.19	115.172
2629.53	113.514
2629.88	112.077
2630.22	110.897
2630.56	109.918
2630.91	108.838
2631.25	107.73
2631.59	106.721
2631.94	105.785
2632.28	105.117
2632.62	104.333
2632.96	103.417
2633.31	100.96
2633.65	98.8373
2633.99	96.7791
2634.34	95.0291
2634.68	93.3682
2635.02	91.5261
2635.36	89.826
2635.71	87.3631
2636.05	84.8577
2636.39	82.0392
2636.73	79.1392
2637.08	76.1855
2637.42	73.4122
2637.76	70.7752
2638.1	68.122
2638.45	65.7831
2638.79	63.3744
2639.13	61.0947
2639.47	58.9162
2639.81	57.0774
2640.16	55.5956
2640.5	54.0808
2640.84	52.5782
2641.18	51.2114
2641.52	49.9299
2641.87	48.4376
2642.21	46.9145
2642.55	45.4875
2642.89	44.1091
2643.23	42.5341
2643.57	41.0856
2643.92	39.9956
2644.26	38.9288
2644.6	37.4921
2644.94	36.0805
2645.28	34.8931
2645.62	33.4962
2645.96	32.3736
2646.31	31.323
2646.65	30.4666
2646.99	29.3545
2647.33	28.166
2647.67	26.7605
2648.01	25.5896
2648.35	24.4554
2648.69	23.4628
2649.03	22.5469
2649.38	21.9425
2649.72	21.6151
2650.06	21.2391
2650.4	21.0551
2650.74	20.8469
2651.08	20.428
2651.42	19.8689
2651.76	19.1801
2652.1	18.3286
2652.44	17.5237
2652.78	16.5855
2653.12	15.7556
2653.46	14.9522
2653.8	14.2014
2654.14	13.5384
2654.48	13.0788
2654.82	12.5767
2655.16	12.1692
2655.5	11.622
2655.84	11.2315
2656.18	10.9002
2656.52	10.7311
2656.86	10.802
2657.2	10.938
2657.54	11.253
2657.88	11.3193
2658.22	11.1791
2658.56	11.1074
2658.9	10.8545
2659.24	10.6152
2659.58	10.1882
2659.92	9.81473
2660.26	9.39301
2660.6	8.96434
2660.94	8.59204
2661.28	8.31871
2661.62	8.00749
2661.96	7.59204
2662.3	7.12544
2662.64	6.76437
2662.98	6.58571
2663.32	6.20174
2663.65	5.93126
2663.99	5.6248
2664.33	5.18782
2664.67	4.81364
2665.01	4.50849
2665.35	4.29428
2665.69	4.0281
2666.03	3.8505
2666.37	3.52676
2666.7	3.21949
2667.04	2.96848
2667.38	2.90662
2667.72	2.93239
2668.06	2.99515
2668.4	3.10464
2668.74	3.17819
2669.07	3.31759
2669.41	2.94165
2669.75	2.39009
2670.09	1.85723
2670.43	1.5326
2670.77	1.39349
2671.1	1.246
2671.44	1.09105
2671.78	1.07393
2672.12	1.0979
2672.46	1.27269
2672.79	1.55593
2673.13	2.13573
2673.47	2.15821
2673.81	2.15458
2674.15	2.14305
2674.48	2.12915
2674.82	2.11921
2675.16	2.12675
2675.5	2.18949
2675.83	2.15051
2676.17	2.1208
2676.51	2.06491
2676.85	2.03388
2677.18	1.9442
2677.52	1.82121
2677.86	1.7891
2678.2	1.80337
2678.53	1.83561
2678.87	1.87914
2679.21	1.90474
2679.54	1.90064
2679.88	1.863
2680.22	1.84057
2680.56	1.8242
2680.89	1.8895
2681.23	1.87732
2681.57	1.77235
2681.9	1.49775
2682.24	1.20847
2682.58	0.939029
2682.91	0.712474
2683.25	0.517239
2683.59	0.194046
2683.92	-0.232982
2684.26	-0.618091
2684.6	-0.959573
2684.93	-1.28799
2685.27	-1.14582
2685.61	-0.669341
2685.94	-0.284293
2686.28	-0.0183754
2686.61	0.204617
2686.95	0.506229
2687.29	0.552294
2687.62	0.492931
2687.96	0.31182
2688.3	0.334264
2688.63	0.398662
2688.97	0.435831
2689.3	0.31021
2689.64	0.166007
2689.97	-0.0365476
2690.31	-0.162185
2690.65	-0.299684
2690.98	-0.426417
2691.32	-0.591942
2691.65	-0.5857
2691.99	-0.621647
2692.32	-0.663919
2692.66	-0.603998
2693	-0.619958
2693.33	-0.7325
2693.67	-0.685337
2694	-0.688879
2694.34	-0.847679
2694.67	-0.992245
2695.01	-1.14204
2695.34	-1.33949
2695.68	-1.77173
2696.01	-2.08758
2696.35	-2.36274
2696.68	-2.46491
2697.02	-2.60723
2697.35	-2.76095
2697.69	-3.16694
2698.02	-3.46337
2698.36	-3.32722
2698.69	-2.73574
2699.03	-2.50977
2699.36	-2.38038
2699.7	-2.1967
2700.03	-1.97747
2700.36	-1.73525
2700.7	-1.46727
2701.03	-1.21939
2701.37	-1.13604
2701.7	-1.18302
2702.04	-1.151
2702.37	-1.18805
2702.71	-1.26542
2703.04	-1.34458
2703.37	-1.44967
2703.71	-1.6896
2704.04	-1.94313
2704.38	-2.06231
2704.71	-2.17138
2705.04	-2.21575
2705.38	-2.23401
2705.71	-2.25576
2706.05	-2.19035
2706.38	-2.0191
2706.71	-2.01914
2707.05	-2.17361
2707.38	-2.37576
2707.71	-2.33716
2708.05	-2.2695
2708.38	-2.1791
2708.71	-1.90475
2709.05	-1.6199
2709.38	-1.36998
2709.71	-0.987616
2710.05	-0.802373
2710.38	-0.871002
2710.71	-0.745298
2711.05	-0.740823
2711.38	-0.783138
2711.71	-0.76781
2712.05	-0.906857
2712.38	-1.08301
2712.71	-1.28216
2713.05	-1.80137
2713.38	-2.18698
2713.71	-1.93896
2714.04	-2.02496
2714.38	-2.15858
2714.71	-2.2917
2715.04	-2.49697
2715.37	-2.80427
2715.71	-3.01889
2716.04	-3.19763
2716.37	-3.23889
2716.71	-3.35239
2717.04	-3.45099
2717.37	-3.42387
2717.7	-3.32139
2718.03	-3.06754
2718.37	-2.91824
2718.7	-2.9141
2719.03	-2.78808
2719.36	-2.61193
2719.7	-2.3931
2720.03	-2.24011
2720.36	-2.29227
2720.69	-2.27892
2721.02	-2.2101
2721.36	-2.14498
2721.69	-2.08082
2722.02	-2.05947
2722.35	-2.12607
2722.68	-2.19466
2723.01	-2.28251
2723.35	-2.43703
2723.68	-2.63401
2724.01	-2.95717
2724.34	-3.20177
2724.67	-3.3342
2725	-3.4985
2725.33	-3.55971
2725.67	-3.56121
2726	-3.4935
2726.33	-3.46821
2726.66	-3.46124
2726.99	-3.4145
2727.32	-3.22609
2727.65	-3.21819
2727.98	-3.18916
2728.31	-3.17739
2728.65	-3.17682
2728.98	-3.32364
2729.31	-3.59198
2729.64	-3.64246
2729.97	-3.54257
2730.3	-3.4698
2730.63	-3.05438
2730.96	-2.67151
2731.29	-2.06069
2731.62	-1.70016
2731.95	-1.70389
2732.28	-1.55827
2732.61	-1.4811
2732.94	-1.49931
2733.27	-2.11308
2733.6	-2.27958
2733.94	-2.29751
2734.26	-2.18574
2734.6	-2.0611
2734.93	-1.91917
2735.26	-1.77455
2735.59	-1.56775
2735.92	-1.44773
2736.25	-1.39082
2736.58	-1.36858
2736.91	-1.35725
2737.24	-1.27058
2737.57	-1.24438
2737.9	-1.1446
2738.22	-0.917235
2738.55	-1.14658
2738.88	-1.27036
2739.21	-1.45393
2739.54	-1.64914
2739.87	-1.74659
2740.2	-1.76783
2740.53	-1.71695
2740.86	-1.68528
2741.19	-1.32391
2741.52	-1.09665
2741.85	-0.958958
2742.18	-0.850493
2742.51	-0.793198
2742.84	-0.887413
2743.17	-1.07866
2743.5	-1.32894
2743.82	-1.28124
2744.15	-1.15698
2744.48	-0.998939
2744.81	-1.31779
2745.14	-1.69115
2745.47	-2.10411
2745.8	-2.54079
2746.13	-2.88867
2746.46	-3.13362
2746.78	-3.35096
2747.11	-3.52965
2747.44	-3.66126
2747.77	-3.91023
2748.1	-3.99814
2748.43	-3.84272
2748.75	-3.68097
2749.08	-3.54284
2749.41	-3.51173
2749.74	-3.45193
2750.07	-3.35461
2750.4	-3.17095
2750.72	-3.01929
2751.05	-2.86213
2751.38	-2.61032
2751.71	-2.35567
2752.04	-2.11312
2752.36	-1.87803
2752.69	-1.54978
2753.02	-1.1927
2753.35	-1.34202
2753.68	-1.91477
2754	-2.43711
2754.33	-2.94331
2754.66	-3.44962
2754.99	-3.39692
2755.31	-1.5475
2755.64	-1.05569
2755.97	-1.10061
2756.3	-1.43175
2756.62	-1.70337
2756.95	-1.94805
2757.28	-1.7568
2757.61	-1.62293
2757.93	-1.59117
2758.26	-1.6454
2758.59	-1.81703
2758.91	-2.21117
2759.24	-2.58369
2759.57	-2.81892
2759.9	-3.0429
2760.22	-3.25792
2760.55	-3.20506
2760.88	-3.13701
2761.2	-3.0513
2761.53	-2.9082
2761.86	-2.81213
2762.18	-2.74117
2762.51	-2.8121
2762.84	-2.83866
2763.16	-2.77075
2763.49	-2.76636
2763.82	-2.80721
2764.14	-2.83417
2764.47	-3.09118
2764.8	-3.55162
2765.12	-3.93136
2765.45	-4.19547
2765.77	-4.29407
2766.1	-3.95029
2766.43	-3.59321
2766.75	-2.90334
2767.08	-2.88426
2767.4	-2.86132
2767.73	-2.92002
2768.06	-3.00449
2768.38	-3.36731
2768.71	-3.84687
2769.03	-3.83431
2769.36	-3.66934
2769.68	-3.33367
2770.01	-2.98442
2770.34	-2.64461
2770.66	-2.46107
2770.99	-2.76045
2771.31	-3.04374
2771.64	-3.32763
2771.96	-3.38792
2772.29	-3.33094
2772.61	-3.29375
2772.94	-3.09607
2773.27	-3.11612
2773.59	-3.02656
2773.92	-3.10967
2774.24	-3.09713
2774.57	-2.91029
2774.89	-2.75107
2775.22	-2.4511
2775.54	-2.19622
2775.87	-1.91797
2776.19	-1.80579
2776.52	-1.78715
2776.84	-1.86304
2777.17	-2.02311
2777.49	-2.1883
2777.81	-2.34733
2778.14	-2.5112
2778.46	-2.46494
2778.79	-2.61029
2779.11	-2.71182
2779.44	-2.92958
2779.76	-3.14853
2780.09	-3.4184
2780.41	-3.59949
2780.73	-3.78737
2781.06	-4.10601
2781.38	-4.21725
2781.71	-4.18385
2782.03	-4.13057
2782.36	-3.83807
2782.68	-3.59753
2783	-3.51103
2783.33	-3.30429
2783.65	-3.08748
2783.98	-2.87745
2784.3	-2.60081
2784.62	-2.39491
2784.95	-2.27834
2785.27	-2.24531
2785.6	-2.20917
2785.92	-2.29136
2786.24	-2.39107
2786.57	-2.52305
2786.89	-2.86472
2787.21	-3.05366
2787.54	-3.11005
2787.86	-2.99028
2788.18	-2.97222
2788.51	-2.80964
2788.83	-2.67763
2789.15	-2.7938
2789.48	-2.99075
2789.8	-2.93366
2790.12	-2.68291
2790.44	-2.46643
2790.77	-2.32652
2791.09	-2.39328
2791.41	-2.66703
2791.74	-3.03083
2792.06	-3.39137
2792.38	-2.67392
2792.71	-2.98887
2793.03	-3.35741
2793.35	-3.76804
2793.67	-4.19813
2794	-4.6023
2794.32	-4.92904
2794.64	-5.2556
2794.96	-5.37097
2795.29	-5.43931
2795.61	-5.45563
2795.93	-5.39439
2796.25	-5.2057
2796.58	-4.98059
2796.9	-4.94557
2797.22	-4.84568
2797.54	-4.5667
2797.86	-3.67022
2798.19	-4.2619
2798.51	-3.79726
2798.83	-3.36628
2799.15	-3.06054
2799.47	-2.98041
2799.8	-3.1042
2800.12	-3.39196
2800.44	-3.83487
2800.76	-4.06645
2801.08	-4.00126
2801.4	-4.03434
2801.73	-4.17851
2802.05	-4.3207
2802.37	-4.31298
2802.69	-4.18325
2803.01	-3.97564
2803.33	-3.76483
2803.66	-3.55361
2803.98	-3.39758
2804.3	-3.35302
2804.62	-3.28896
2804.94	-3.20929
2805.26	-3.15674
2805.58	-3.18606
2805.9	-3.11921
2806.22	-3.04361
2806.55	-3.08541
2806.87	-3.02457
2807.19	-2.98007
2807.51	-2.85838
2807.83	-2.86246
2808.15	-2.90426
2808.47	-3.0212
2808.79	-3.14781
2809.11	-3.27097
2809.43	-3.30508
2809.75	-3.44456
2810.07	-3.51102
2810.39	-3.59651
2810.71	-3.7287
2811.04	-3.86331
2811.36	-3.88675
2811.68	-3.83075
2812	-3.84391
2812.32	-3.60135
2812.64	-3.51535
2812.96	-3.45277
2813.28	-3.40718
2813.6	-3.34753
2813.92	-3.3438
2814.24	-3.49134
2814.56	-3.61008
2814.88	-3.82807
2815.2	-3.89569
2815.52	-3.98756
2815.84	-4.08073
2816.16	-4.1111
2816.48	-4.07531
2816.8	-3.9591
2817.12	-3.79275
2817.43	-3.68592
2817.75	-3.82183
2818.07	-3.91141
2818.39	-3.88357
2818.71	-3.62438
2819.03	-3.74484
2819.35	-3.84877
2819.67	-3.73027
2819.99	-3.62706
2820.31	-3.47223
2820.63	-3.35371
2820.95	-3.34442
2821.27	-3.39554
2821.59	-3.31642
2821.9	-3.2786
2822.22	-3.24826
2822.54	-3.10725
2822.86	-2.91022
2823.18	-2.91681
2823.5	-3.07942
2823.82	-2.93659
2824.14	-2.67784
2824.46	-2.53193
2824.77	-2.54691
2825.09	-2.72493
2825.41	-2.92751
2825.73	-3.19477
2826.05	-3.66035
2826.37	-4.06451
2826.68	-4.23342
2827	-4.11352
2827.32	-3.95337
2827.64	-4.01056
2827.96	-4.13265
2828.27	-4.12748
2828.59	-4.08877
2828.91	-4.06661
2829.23	-4.15738
2829.55	-4.31265
2829.87	-4.25707
2830.18	-3.94585
2830.5	-3.88277
2830.82	-4.30013
2831.14	-4.1609
2831.46	-4.09708
2831.77	-4.12507
2832.09	-4.20461
2832.41	-4.37568
2832.73	-4.38577
2833.04	-4.40595
2833.36	-4.43374
2833.68	-4.39873
2834	-4.33464
2834.31	-4.28946
2834.63	-4.28097
2834.95	-4.11269
2835.26	-3.85154
2835.58	-3.38698
2835.9	-3.01135
2836.22	-2.6638
2836.53	-2.61773
2836.85	-2.83202
2837.17	-3.00848
2837.48	-3.217
2837.8	-3.32366
2838.12	-3.32781
2838.44	-3.29319
2838.75	-3.30992
2839.07	-3.32804
2839.39	-3.27021
2839.7	-3.15218
2840.02	-3.07836
2840.34	-2.96569
2840.65	-2.9157
2840.97	-2.96582
2841.29	-3.07756
2841.6	-3.19239
2841.92	-3.24996
2842.23	-3.20936
2842.55	-3.21599
2842.87	-3.19297
2843.18	-3.20128
2843.5	-3.34658
2843.82	-3.52785
2844.13	-3.59644
2844.45	-3.65394
2844.76	-3.66944
2845.08	-3.6377
2845.4	-3.48578
2845.71	-3.35084
2846.03	-3.21241
2846.34	-3.29165
2846.66	-3.41991
2846.97	-3.57269
2847.29	-3.71405
2847.61	-3.75461
2847.92	-3.73976
2848.24	-3.81851
2848.55	-3.90733
2848.87	-3.96367
2849.18	-4.07662
2849.5	-4.13384
2849.81	-4.10429
2850.13	-3.98652
2850.45	-3.79659
2850.76	-3.58913
2851.08	-3.42815
2851.39	-3.41534
2851.71	-3.43796
2852.02	-3.37644
2852.34	-3.36689
2852.65	-3.27809
2852.97	-3.05721
2853.28	-2.86112
2853.6	-2.61046
2853.91	-2.49454
2854.23	-2.4264
2854.54	-2.49738
2854.85	-2.59067
2855.17	-2.71292
2855.48	-2.82656
2855.8	-2.91446
2856.11	-2.97671
2856.43	-3.00967
2856.74	-3.22953
2857.06	-3.46844
2857.37	-3.70558
2857.68	-3.91749
2858	-4.14599
2858.31	-4.38059
2858.63	-4.55828
2858.94	-4.72293
2859.26	-4.81651
2859.57	-4.75013
2859.88	-4.65959
2860.2	-4.46273
2860.51	-4.30581
2860.79	-4.2468
2861.11	-4.16042
2861.44	-3.99466
2861.77	-3.52284
2862.09	-3.38191
2862.42	-3.3186
2862.75	-3.47431
2863.07	-3.66475
2863.4	-4.00273
2863.73	-4.08472
2864.05	-4.02175
2864.38	-3.67844
2864.71	-3.10525
2865.03	-2.9038
2865.36	-3.91659
2865.69	-4.46515
2866.01	-5.05825
2866.34	-4.21844
2866.67	-2.52003
2866.99	-2.14742
2867.32	-1.69042
2867.64	-2.12436
2867.97	-2.41971
2868.3	-2.48503
2868.62	-2.44598
2868.95	-1.98843
2869.27	-1.65489
2869.6	-1.6433
2869.93	-1.71057
2870.25	-1.72455
2870.58	-1.78861
2870.9	-2.0591
2871.23	-2.56499
2871.56	-3.18343
2871.88	-3.77263
2872.21	-4.20494
2872.53	-4.51665
2872.86	-4.59661
2873.18	-4.61517
2873.51	-4.57346
2873.83	-4.40326
2874.16	-4.12086
2874.48	-3.94115
2874.81	-3.70281
2875.14	-3.58952
2875.46	-3.47047
2875.79	-3.26041
2876.11	-3.18109
2876.44	-3.13859
2876.76	-3.03661
2877.09	-2.92112
2877.41	-2.82902
2877.74	-2.74754
2878.06	-2.99236
2878.39	-3.34606
2878.71	-3.73403
2879.04	-4.23727
2879.36	-4.38611
2879.69	-4.32594
2880.01	-4.2651
2880.33	-4.28242
2880.66	-4.2524
2880.98	-4.35565
2881.31	-4.50344
2881.63	-4.62703
2881.96	-4.56873
2882.28	-4.66031
2882.61	-4.54948
2882.93	-5.10913
2883.25	-3.1581
2883.58	-2.33068
2883.9	-2.15974
2884.23	-2.41961
2884.55	-2.98007
2884.88	-2.97665
2885.2	-3.06592
2885.52	-2.89988
2885.85	-3.01867
2886.17	-3.19789
2886.49	-3.50095
2886.82	-3.82956
2887.14	-3.88559
2887.47	-3.82479
2887.79	-3.63981
2888.11	-3.54973
2888.44	-3.54148
2888.76	-3.41199
2889.08	-3.55434
2889.41	-3.62453
2889.73	-3.80344
2890.05	-3.83028
2890.38	-3.89498
2890.7	-3.92959
2891.02	-3.78984
2891.35	-3.84885
2891.67	-3.87215
2891.99	-3.85948
2892.32	-3.77578
2892.64	-3.69838
2892.96	-3.45936
2893.29	-3.21062
2893.61	-3.05327
2893.93	-2.99627
2894.26	-3.18637
2894.58	-3.29173
2894.9	-3.38786
2895.22	-3.56115
2895.55	-3.8637
2895.87	-4.10858
2896.19	-4.37356
2896.51	-4.33784
2896.84	-4.22834
2897.16	-4.12854
2897.48	-4.12614
2897.81	-4.14576
2898.13	-4.04273
2898.45	-3.97021
2898.77	-3.98867
2899.1	-3.63036
2899.42	-3.33336
2899.74	-3.1732
2900.06	-3.02356
2900.38	-2.82473
2900.71	-2.65813
2901.03	-2.38747
2901.35	-2.39384
2901.67	-2.6022
2901.99	-2.89245
2902.32	-3.26688
2902.64	-3.54403
2902.96	-3.81987
2903.28	-4.16918
2903.6	-4.32034
2903.92	-4.28143
2904.25	-4.20509
2904.57	-4.12559
2904.89	-4.17336
2905.21	-4.20856
2905.53	-4.2186
2905.85	-4.24144
2906.18	-4.21172
2906.5	-4.1361
2906.82	-4.33441
2907.14	-4.57734
2907.46	-4.69239
2907.78	-4.69635
2908.1	-4.5804
2908.42	-4.336
2908.75	-4.07068
2909.07	-3.89042
2909.39	-3.64518
2909.71	-3.6846
2910.03	-3.65267
2910.35	-3.76378
2910.67	-3.78871
2910.99	-3.83816
2911.31	-3.95316
2911.63	-4.02799
2911.95	-4.03153
2912.28	-4.09666
2912.6	-4.05629
2912.92	-4.06334
2913.24	-4.12398
2913.56	-4.34741
2913.88	-4.46862
2914.2	-4.55511
2914.52	-4.56648
2914.84	-4.57752
2915.16	-4.48561
2915.48	-4.35048
2915.8	-4.237
2916.12	-4.20259
2916.44	-4.27099
2916.76	-4.07983
2917.08	-3.44333
2917.4	-2.99792
2917.72	-2.51201
2918.04	-2.43605
2918.36	-2.43476
2918.68	-2.43153
2919	-2.56312
2919.32	-2.62404
2919.64	-2.75634
2919.96	-2.74181
2920.28	-2.72465
2920.6	-2.74766
2920.92	-2.87965
2921.24	-3.01687
2921.56	-3.09909
2921.88	-2.90992
2922.2	-2.8489
2922.52	-2.68091
2922.84	-2.31676
2923.16	-1.89789
2923.47	-1.55416
2923.79	-1.61036
2924.11	-1.86529
2924.43	-2.11481
2924.75	-2.66687
2925.07	-3.10428
2925.39	-3.5263
2925.71	-3.86904
2926.03	-4.3711
2926.35	-4.82418
2926.67	-4.76978
2926.98	-4.64823
2927.3	-4.18863
2927.62	-3.89965
2927.94	-3.68216
2928.26	-3.12197
2928.58	-2.80194
2928.9	-2.60032
2929.22	-2.35062
2929.53	-2.1923
2929.85	-2.12856
2930.17	-2.09524
2930.49	-2.15631
2930.81	-2.24389
2931.13	-2.57854
2931.45	-2.78342
2931.76	-2.97783
2932.08	-3.13564
2932.4	-3.23606
2932.72	-3.32359
2933.04	-3.22088
2933.35	-3.0258
2933.67	-2.69692
2933.99	-2.42388
2934.31	-1.95522
2934.63	-1.56483
2934.94	-1.30262
2935.26	-1.19078
2935.58	-1.08268
2935.9	-1.08476
2936.21	-2.04181
2936.53	-2.91164
2936.85	-3.89897
2937.17	-2.77953
2937.49	-2.38984
2937.8	-2.97917
2938.12	-5.14038
2938.44	-6.60328
2938.76	-4.87467
2939.07	-3.43132
2939.39	-3.49144
2939.71	-3.5665
2940.02	-3.57836
2940.34	-3.56653
2940.66	-5.1982
2940.98	-4.77222
2941.29	-4.47681
2941.61	-4.0564
2941.93	-3.74947
2942.24	-4.15778
2942.56	-4.35732
2942.88	-4.45092
2943.19	-4.38201
2943.51	-4.37933
2943.83	-4.13845
2944.15	-4.2499
2944.46	-4.35071
2944.78	-4.44033
2945.09	-4.51984
2945.41	-4.54837
2945.73	-4.65239
2946.04	-4.66487
2946.36	-4.6443
2946.68	-4.3081
2946.99	-3.8059
2947.31	-3.42803
2947.63	-3.34445
2947.94	-3.1446
2948.26	-3.10455
2948.57	-3.24424
2948.89	-3.45083
2949.21	-3.58962
2949.52	-3.66586
2949.84	-3.84539
2950.15	-4.00571
2950.47	-3.99849
2950.79	-3.88238
2951.1	-3.65388
2951.42	-3.35803
2951.73	-3.38609
2952.05	-3.48138
2952.37	-3.55886
2952.68	-3.61763
2953	-3.74984
2953.31	-3.80161
2953.63	-3.78135
2953.94	-3.57499
2954.26	-3.30035
2954.57	-2.96732
2954.89	-2.80748
2955.21	-2.7241
2955.52	-2.42753
2955.84	-2.37406
2956.15	-2.35915
2956.47	-2.39738
2956.78	-2.4203
2957.1	-2.53619
2957.41	-2.69687
2957.73	-2.8999
2958.04	-3.23837
2958.36	-3.78165
2958.67	-4.53233
2958.99	-5.45235
2959.3	-6.1114
2959.62	-6.72742
2959.93	-6.72934
2960.25	-6.37262
2960.56	-5.24988
2960.87	-4.92467
2961.19	-5.90127
2961.5	-5.51953
2961.82	-5.62315
2962.13	-5.14018
2962.45	-4.95281
2962.76	-3.98077
2963.08	-4.1911
2963.39	-3.25712
2963.71	-3.69834
2964.02	-4.22903
2964.33	-4.47561
2964.65	-4.65933
2964.96	-4.73131
2965.28	-4.84552
2965.59	-4.8583
2965.9	-4.96492
2966.22	-4.90795
2966.53	-4.6484
2966.85	-4.40386
2967.16	-4.19433
2967.47	-3.9866
2967.79	-3.77538
2968.1	-3.64413
2968.41	-3.41038
2968.73	-3.2291
2969.04	-3.04453
2969.35	-2.92291
2969.67	-2.82175
2969.98	-2.83299
2970.3	-3.05418
2970.61	-3.31912
2970.92	-3.55026
2971.24	-3.68733
2971.55	-4.16369
2971.86	-4.43994
2972.18	-4.54755
2972.49	-4.68409
2972.8	-4.77581
2973.12	-4.58617
2973.43	-4.11887
2973.74	-3.78572
2974.05	-3.43635
2974.37	-3.18831
2974.68	-2.86571
2974.99	-2.80424
2975.31	-2.76987
2975.62	-2.78728
2975.93	-2.834
2976.24	-2.99279
2976.56	-3.19243
2976.87	-3.46421
2977.18	-3.58073
2977.49	-3.55225
2977.81	-3.39874
2978.12	-3.3568
2978.43	-3.43909
2978.74	-3.51883
2979.06	-3.48211
2979.37	-3.41304
2979.68	-3.43512
2979.99	-3.53635
2980.31	-3.77988
2980.62	-3.99348
2980.93	-4.1563
2981.24	-4.235
2981.55	-4.43604
2981.87	-4.24023
2982.18	-4.01498
2982.49	-3.90813
2982.8	-3.69331
2983.11	-3.51251
2983.42	-3.59832
2983.74	-4.39443
2984.05	-4.04816
2984.36	-4.44495
2984.67	-4.50051
2984.98	-4.55272
2985.3	-4.61362
2985.61	-4.77312
2985.92	-4.71142
2986.23	-4.64084
2986.54	-4.60561
2986.85	-4.58901
2987.16	-4.45313
2987.47	-4.22928
2987.79	-4.0942
2988.1	-3.91189
2988.41	-3.75512
2988.72	-3.61539
2989.03	-3.51889
2989.34	-3.30526
2989.65	-3.0391
2989.96	-2.96292
2990.27	-2.95546
2990.59	-3.12885
2990.9	-3.22631
2991.21	-3.37435
2991.52	-3.2524
2991.83	-2.92113
2992.14	-2.75895
2992.45	-2.47911
2992.76	-2.36113
2993.07	-2.39894
2993.38	-2.30642
2993.69	-2.36672
2994	-2.50864
2994.31	-2.61175
2994.62	-2.90819
2994.93	-3.13594
2995.24	-3.26556
2995.55	-3.36802
2995.86	-3.49196
2996.17	-3.67162
2996.49	-3.82283
2996.8	-4.08443
2997.11	-4.47296
2997.42	-4.70652
2997.73	-4.69664
2998.04	-4.07673
2998.35	-4.11971
2998.65	-4.05882
2998.96	-4.03314
2999.27	-3.89974
2999.58	-3.73039
2999.89	-4.61349
